time,seconds_elapsed,z,y,x
1717009637503447000,0.058447021484375,-0.06780604273080826,-0.14294247329235077,0.09529497474431992
1717009637543455700,0.098455810546875,-0.10751228034496307,-0.006108652334660292,-0.10445795953273773
1717009637583465000,0.13846484375,-0.16859880089759827,0.22602014243602753,0.02687807008624077
1717009637623443200,0.178443115234375,-1.0824532508850098,-1.0012081861495972,0.2681698501110077
1717009637663448600,0.218448486328125,-1.5729780197143555,-3.0103440284729004,-0.8765916228294373
1717009637703461600,0.258461669921875,-1.665218710899353,0.685390830039978,-2.679865837097168
1717009637743467800,0.2984677734375,0.588874101638794,0.36529740691185,-1.7922786474227905
1717009637783444700,0.33844482421875,0.979216992855072,-1.613295078277588,-0.7397578358650208
1717009637823453000,0.378452880859375,0.3439171314239502,-3.081815242767334,1.2724323272705078
1717009637863463700,0.418463623046875,-0.014049900695681572,-2.0775527954101562,1.2889256477355957
1717009637903441700,0.458441650390625,-0.15577064454555511,-1.4483615159988403,0.15821409225463867
1717009637943449600,0.49844970703125,-0.05497787147760391,-0.665232241153717,0.18448130786418915
1717009637983460600,0.538460693359375,1.2681562900543213,-0.6542366743087769,-0.08857546001672745
1717009638023464700,0.578464599609375,1.9724838733673096,-1.313360333442688,2.2296581268310547
1717009638063444700,0.61844482421875,1.5821410417556763,-0.5412266254425049,3.422677993774414
1717009638103451100,0.658451171875,0.7965682744979858,-0.7043276429176331,1.1618657112121582
1717009638143652000,0.698652099609375,0.4715879559516907,-0.2919935882091522,0.5241223573684692
1717009638183630300,0.73863037109375,0.4715879559516907,-0.2919935882091522,0.5241223573684692
1717009638223634000,0.778634033203125,-0.3988949954509735,0.9456194043159485,-0.08246681094169617
1717009638263645700,0.818645751953125,-0.494189977645874,0.8576548099517822,-0.7715228199958801
1717009638303624400,0.85862451171875,-0.3701843321323395,0.42271876335144043,-1.0299187898635864
1717009638343630000,0.898630126953125,-0.20586158335208893,0.38117989897727966,-0.48685958981513977
1717009638383641600,0.9386416015625,-0.28038713335990906,0.3335324227809906,0.08368854224681854
1717009638423650000,0.978650146484375,-0.2480112910270691,0.2632829248905182,0.09468411654233932
1717009638463625200,1.018625244140625,-0.29138273000717163,0.2590068578720093,0.47219884395599365
1717009638503638800,1.058638671875,-0.46364670991897583,0.3549126982688904,0.45753806829452515
1717009638543647500,1.0986474609375,-0.7348709106445312,0.5161811113357544,0.16920967400074005
1717009638583620600,1.13862060546875,-0.7648032903671265,0.7024950385093689,-0.08368854224681854
1717009638623632000,1.1786318359375,-0.26939156651496887,0.252287358045578,0.7000515460968018
1717009638663642000,1.21864208984375,-0.2583959996700287,-0.09407325088977814,0.9535606503486633
1717009638703645700,1.258645751953125,-0.27977627515792847,0.2742784917354584,0.30604347586631775
1717009638743626800,1.298626708984375,-0.19364428520202637,0.4642575979232788,0.5839871764183044
1717009638783637500,1.338637451171875,-0.4129449129104614,0.10018189996480942,0.9627236127853394
1717009638823643100,1.37864306640625,-0.3341432809829712,0.44287729263305664,0.6548475623130798
1717009638863624200,1.418624267578125,-0.24556782841682434,0.4288274049758911,0.8240572214126587
1717009638903632600,1.458632568359375,-0.20952677726745605,0.152105450630188,0.9150761365890503
1717009638943638300,1.49863818359375,-0.19547687470912933,0.1215621829032898,0.7556403279304504
1717009638983649800,1.53864990234375,-0.17409659922122955,0.22296582162380219,0.5277875661849976
1717009639023627800,1.578627685546875,-0.17776179313659668,0.01466076634824276,0.4178318381309509
1717009639063632600,1.618632568359375,-0.1472185254096985,-0.12767083942890167,0.3225368559360504
1717009639103645000,1.65864501953125,-0.06963863968849182,-0.23457226157188416,0.24007004499435425
1717009639143652600,1.698652587890625,-0.2125810980796814,-0.2626720666885376,0.11239920556545258
1717009639183628300,1.738628173828125,-0.2993239760398865,-0.14782938361167908,-0.05009094998240471
1717009639223639800,1.778639892578125,-0.304210901260376,-0.4001167416572571,0.059864792972803116
1717009639263645700,1.818645751953125,-0.5962044596672058,-0.35246923565864563,-0.3188716471195221
1717009639303623000,1.858622802734375,-0.48685958981513977,-0.18875735998153687,-1.0775662660598755
1717009639343633000,1.8986328125,-0.252287358045578,-0.8362745046615601,-0.8985827565193176
1717009639383640800,1.938640869140625,-0.1966986060142517,-1.663996934890747,0.12950342893600464
1717009639423648300,1.978648193359375,0.07330382615327835,-3.372586965560913,0.8857545852661133
1717009639463627500,2.01862744140625,1.0714576244354248,-5.3585100173950195,0.3891211748123169
1717009639503636000,2.058635986328125,3.676797866821289,-6.1092634201049805,-0.18020524084568024
1717009639543641600,2.0986416015625,4.587597846984863,-5.410433292388916,-1.2046263217926025
1717009639583622700,2.13862255859375,4.226576805114746,-5.106833457946777,-0.8680394887924194
1717009639623633400,2.17863330078125,3.4886515140533447,-2.046398639678955,-2.9828550815582275
1717009639663636700,2.21863671875,3.3817501068115234,-2.8130345344543457,-1.1160508394241333
1717009639703650600,2.258650634765625,2.889392614364624,-2.981022357940674,-1.5076154470443726
1717009639743626200,2.298626220703125,2.105041742324829,-1.5045610666275024,-1.5564846992492676
1717009639783632000,2.3386318359375,0.7348709106445312,-0.4709770977497101,-1.205847978591919
1717009639823644200,2.37864404296875,-1.3194689750671387,-0.5412266254425049,-0.21807889640331268
1717009639863625700,2.418625732421875,-2.436741352081299,1.1355985403060913,0.9077457785606384
1717009639903627000,2.458626953125,-4.0378193855285645,3.0860912799835205,2.185675859451294
1717009639943638500,2.498638427734375,-4.96999979019165,3.3652565479278564,3.241250991821289
1717009639983647200,2.538647216796875,-5.505117416381836,2.8380799293518066,3.9816195964813232
1717009640023622100,2.5786220703125,-4.9174652099609375,1.6969836950302124,3.9095375537872314
1717009640063634000,2.618634033203125,-3.224146842956543,-0.11239920556545258,2.090380907058716
1717009640103642600,2.658642578125,0.4489859640598297,0.010995574295520782,1.5900822877883911
1717009640143647700,2.698647705078125,1.0024298429489136,-0.8191702961921692,1.2217304706573486
1717009640183628300,2.738628173828125,4.7329840660095215,-0.46731191873550415,-1.1808024644851685
1717009640223637000,2.778636962890625,7.508755683898926,-0.5125159621238708,-3.142901659011841
1717009640263643000,2.818642822265625,5.521610736846924,-0.9914342761039734,-3.009732961654663
1717009640303624000,2.8586240234375,4.971832275390625,0.5858197808265686,-3.8570032119750977
1717009640343634700,2.898634765625,1.785559058189392,-0.8142833709716797,-2.161241292953491
1717009640383640000,2.93864013671875,1.1832460165023804,-1.6578882932662964,-1.945605754852295
1717009640423652000,2.978652099609375,-0.29016098380088806,-2.186286687850952,-1.2131783962249756
1717009640463629800,3.0186298828125,-1.1288789510726929,0.28527405858039856,0.5962044596672058
1717009640503633000,3.0586328125,-2.2602014541625977,-1.1368201971054077,1.9730947017669678
1717009640543645200,3.098645263671875,-4.119675159454346,-0.26083946228027344,-1.2296717166900635
1717009640583625000,3.138625,-4.6273040771484375,0.9902125597000122,0.49846604466438293
1717009640623630300,3.17863037109375,-5.387831687927246,1.9737056493759155,1.9737056493759155
1717009640663639800,3.218639892578125,-5.175861358642578,2.613281488418579,2.671924591064453
1717009640703648000,3.25864794921875,-5.436089992523193,1.9914207458496094,3.1593949794769287
1717009640743625500,3.29862548828125,-3.9492437839508057,2.7898216247558594,0.6902777552604675
1717009640783635200,3.33863525390625,-1.2376129627227783,1.6798794269561768,2.1068742275238037
1717009640823644000,3.378643798828125,0.21868975460529327,1.1997393369674683,2.73606538772583
1717009640863619000,3.418619140625,2.2174408435821533,0.6615670323371887,0.19486601650714874
1717009640903632100,3.458632080078125,5.070792198181152,-0.6249151229858398,-1.9480493068695068
1717009640943638500,3.498638427734375,5.523443698883057,-1.6126842498779297,-2.48988676071167
1717009640983644400,3.53864453125,5.488624095916748,-0.4697553813457489,-3.0610456466674805
1717009641023627300,3.578627197265625,3.078760862350464,-0.7238753437995911,-1.6407840251922607
1717009641063633700,3.618633544921875,1.9321668148040771,-0.8185594081878662,-1.5204435586929321
1717009641103639800,3.658639892578125,-0.26572638750076294,-1.8790215253829956,-0.665232241153717
1717009641143649800,3.69864990234375,-2.5161540508270264,-0.39095374941825867,-1.5430456399917603
1717009641183629000,3.738629150390625,-3.765373468399048,-0.9743300676345825,-0.1918116807937622
1717009641223634000,3.778634033203125,-5.602245330810547,1.2400563955307007,-0.06352998316287994
1717009641263648000,3.81864794921875,-6.238766670227051,2.778215169906616,2.336559534072876
1717009641303626200,3.858626220703125,-6.3774333000183105,4.012163162231445,0.012217304669320583
1717009641343631600,3.898631591796875,-5.463578701019287,3.1031954288482666,2.2186625003814697
1717009641383643100,3.93864306640625,-2.8686232566833496,1.2357803583145142,2.29440975189209
1717009641423651600,3.978651611328125,-0.817948579788208,1.5485434532165527,-1.2852604389190674
1717009641463624700,4.018624755859375,1.215621829032898,1.9443840980529785,0.051312681287527084
1717009641503636000,4.058635986328125,5.84109354019165,0.9083566069602966,1.5522085428237915
1717009641543679500,4.098679443359375,5.965099334716797,0.6065891981124878,1.1722503900527954
1717009641583619800,4.138619873046875,4.494746685028076,-0.3396410644054413,-1.4874569177627563
1717009641623631000,4.178631103515625,4.867374420166016,-0.10812314599752426,-3.5265250205993652
1717009641663639800,4.218639892578125,4.092186450958252,-0.8222246170043945,-2.059837579727173
1717009641703647700,4.258647705078125,3.163060188293457,0.27122417092323303,-2.730567693710327
1717009641743628300,4.298628173828125,2.1459696292877197,-0.2119702398777008,-1.8887953758239746
1717009641783635200,4.33863525390625,1.2681562900543213,-0.9633345007896423,-0.37140607833862305
1717009641823641000,4.37864111328125,-0.10751228034496307,-0.04459316283464432,-0.607810914516449
1717009641863621400,4.418621337890625,-1.0653489828109741,0.2718350291252136,1.2418889999389648
1717009641903632100,4.458632080078125,-2.031737804412842,1.2278391122817993,2.6059510707855225
1717009641943635500,4.498635498046875,-2.5509731769561768,2.235766887664795,3.7898080348968506
1717009641983649000,4.53864892578125,-2.8851165771484375,4.242459297180176,4.505742073059082
1717009642023625000,4.578625,-2.324953079223633,4.125173091888428,6.726848125457764
1717009642063630800,4.618630859375,-4.899750232696533,0.8845328688621521,3.428175687789917
1717009642103644400,4.65864453125,-5.189910888671875,2.22477126121521,-2.1306979656219482
1717009642143650000,4.698650146484375,-3.2675182819366455,1.6206254959106445,1.7049249410629272
1717009642183625200,4.738625244140625,-1.254717230796814,1.5180001258850098,1.5827518701553345
1717009642223637500,4.778637451171875,-0.2767219543457031,2.2773056030273438,0.7226535677909851
1717009642263646500,4.818646484375,1.2510520219802856,1.6927075386047363,1.6823228597640991
1717009642303623200,4.858623046875,2.9382617473602295,1.016479730606079,1.207069754600525
1717009642343632600,4.898632568359375,4.464814186096191,0.675616979598999,-0.3536909818649292
1717009642383641000,4.93864111328125,5.529551982879639,0.8155050873756409,-0.6120869517326355
1717009642423648800,4.978648681640625,4.096462249755859,0.40194934606552124,0.6511823534965515
1717009642463629800,5.0186298828125,3.525914192199707,0.4862487316131592,-0.9199630618095398
1717009642503636000,5.058635986328125,2.3634376525878906,-0.24190263450145721,-0.22968533635139465
1717009642543642000,5.09864208984375,1.1282681226730347,-0.09040805697441101,-0.4001167416572571
1717009642583622700,5.13862255859375,-1.053742527961731,0.617584764957428,-0.8045095205307007
1717009642623631000,5.178631103515625,-2.2094995975494385,0.9199630618095398,1.3213015794754028
1717009642663636700,5.21863671875,-3.5081992149353027,0.9908234477043152,1.8655824661254883
1717009642703650600,5.258650634765625,-4.039041042327881,1.538158655166626,0.9553932547569275
1717009642743628500,5.298628662109375,-4.23818302154541,1.6572774648666382,2.051896333694458
1717009642783634200,5.33863427734375,-3.332880735397339,2.2907447814941406,2.9602530002593994
1717009642823643100,5.37864306640625,-3.6920695304870605,1.7531832456588745,3.5326337814331055
1717009642863621600,5.41862158203125,-3.6590828895568848,1.5344934463500977,1.1716395616531372
1717009642903631400,5.45863134765625,-2.8099801540374756,1.4599679708480835,-0.7073819637298584
1717009642943641600,5.4986416015625,-1.4294246435165405,1.7568484544754028,-0.27000242471694946
1717009642983647700,5.538647705078125,0.019547687843441963,1.2718214988708496,0.9108000993728638
1717009643023622100,5.5786220703125,1.141707181930542,1.5460999011993408,-0.12339477986097336
1717009643063634000,5.618634033203125,3.36403489112854,1.1905763149261475,-0.19853121042251587
1717009643103642000,5.65864208984375,4.87898063659668,0.21380282938480377,0.2590068578720093
1717009643143647000,5.69864697265625,6.23571252822876,0.7904596328735352,-0.9450085163116455
1717009643183630600,5.738630615234375,5.100113868713379,0.36102136969566345,-0.12950342893600464
1717009643223639000,5.77863916015625,4.371351718902588,0.3023782968521118,-0.759916365146637
1717009643263563500,5.8185634765625,3.3377676010131836,0.17348572611808777,-0.7910705208778381
1717009643304050400,5.859050537109375,3.3377676010131836,0.17348572611808777,-0.7910705208778381
1717009643344059100,5.89905908203125,-0.07452555745840073,-0.009773843921720982,-0.9553932547569275
1717009643384039400,5.939039306640625,-1.351233959197998,-0.4789183437824249,-0.8313875794410706
1717009643424045600,5.979045654296875,-2.0005836486816406,0.49235737323760986,-0.8503243923187256
1717009643464054300,6.01905419921875,-2.65726375579834,0.48258355259895325,0.015271631069481373
1717009643504034600,6.05903466796875,-3.5662312507629395,1.338405728340149,0.20586158335208893
1717009643544042800,6.099042724609375,-3.8625009059906006,1.6603317260742188,1.9132299423217773
1717009643584051500,6.139051513671875,-4.075081825256348,1.6994271278381348,3.0909781455993652
1717009643624057900,6.179057861328125,-4.9510626792907715,1.9156733751296997,0.7849618196487427
1717009643664035800,6.219035888671875,-4.318817138671875,2.155743360519409,-0.1319468915462494
1717009643704046300,6.25904638671875,-2.777604341506958,1.5167783498764038,0.6383541822433472
1717009643744052700,6.299052734375,-0.9205739498138428,1.4306464195251465,1.084285855293274
1717009643784030700,6.33903076171875,-0.5424483418464661,0.6322455406188965,1.7330247163772583
1717009643824040200,6.379040283203125,0.7996225953102112,-0.26511552929878235,0.5772676467895508
1717009643864047900,6.4190478515625,2.665815830230713,-0.7287622094154358,-1.2034045457839966
1717009643904056600,6.459056640625,3.855781316757202,-1.5351043939590454,-1.817324161529541
1717009643944036600,6.49903662109375,4.830722332000732,-1.197906732559204,-1.3732250928878784
1717009643984045300,6.53904541015625,3.089756488800049,-1.4618005752563477,-0.5064072608947754
1717009644024051700,6.5790517578125,2.1813998222351074,-1.4208725690841675,-0.7018841505050659
1717009644064060700,6.619060791015625,1.0592403411865234,-1.929112434387207,-0.7086036801338196
1717009644104038100,6.6590380859375,-0.37629300355911255,-1.147204875946045,-0.9535606503486633
1717009644144049000,6.699048828125,-2.7061331272125244,-1.0702359676361084,-0.759916365146637
1717009644184057600,6.7390576171875,-3.6303720474243164,0.34758231043815613,-1.2260065078735352
1717009644224033800,6.77903369140625,-4.299880504608154,1.2754865884780884,-0.46181413531303406
1717009644264042800,6.819042724609375,-5.0207014083862305,2.3383922576904297,-2.230879783630371
1717009644304053200,6.85905322265625,-3.7000107765197754,3.637702465057373,0.14477506279945374
1717009644344061000,6.89906103515625,-4.363410472869873,3.0219504833221436,4.977941036224365
1717009644384039200,6.9390390625,-4.952284336090088,2.306016206741333,1.6157386302947998
1717009644424046300,6.97904638671875,-2.5754079818725586,1.9639317989349365,-0.17287486791610718
1717009644464056300,7.019056396484375,-0.617584764957428,0.11423180252313614,0.36529740691185
1717009644504034300,7.059034423828125,0.8949176073074341,0.34758231043815613,0.19975294172763824
1717009644544042800,7.099042724609375,1.4654656648635864,-0.013439035043120384,0.8313875794410706
1717009644584049400,7.13904931640625,3.3322699069976807,-0.6621779203414917,0.13316862285137177
1717009644624057900,7.179057861328125,5.289482116699219,-1.5277739763259888,-1.670716404914856
1717009644664035600,7.21903564453125,7.229589939117432,-1.797776460647583,-3.6749653816223145
1717009644704044300,7.259044189453125,7.088480472564697,-1.9932533502578735,-2.7091872692108154
1717009644744054800,7.2990546875,6.390261173248291,-1.36650550365448,-3.0714304447174072
1717009644784033300,7.339033203125,3.849672794342041,-1.6413949728012085,-2.258368730545044
1717009644824039400,7.379039306640625,2.2351558208465576,-2.1001546382904053,-2.554027557373047
1717009644864048600,7.419048583984375,0.494189977645874,-1.3921618461608887,-2.1484131813049316
1717009644904058600,7.45905859375,-0.5974262356758118,-1.5063936710357666,0.5699372887611389
1717009644944036600,7.49903662109375,-2.7293457984924316,-1.1551461219787598,-0.3439171314239502
1717009644984043300,7.539043212890625,-3.6841282844543457,-0.3445279896259308,-0.9926560521125793
1717009645024053800,7.5790537109375,-4.386623382568359,0.42271876335144043,0.34025195240974426
1717009645064060400,7.619060302734375,-4.481307506561279,2.2430970668792725,0.3390302062034607
1717009645114665700,7.669665771484375,-4.481307506561279,2.2430970668792725,0.3390302062034607
1717009645154676700,7.7096767578125,-4.528954982757568,2.1594085693359375,2.168571710586548
1717009645194683100,7.74968310546875,-3.65114164352417,2.1032090187072754,0.4245513379573822
1717009645234658000,7.789657958984375,-2.0421226024627686,1.33168625831604,0.8588765263557434
1717009645274672000,7.829672119140625,-1.1166616678237915,0.7556403279304504,1.214400053024292
1717009645314680300,7.869680419921875,-0.1814269721508026,0.6572909951210022,0.99876469373703
1717009645354684000,7.909683837890625,1.4721852540969849,-0.5907067060470581,0.20952677726745605
1717009645394667300,7.949667236328125,3.4293975830078125,-1.6120734214782715,-1.739133358001709
1717009645434675700,7.98967578125,5.291925430297852,-2.3890938758850098,-2.2675318717956543
1717009645474681300,8.029681396484374,4.5851545333862305,-2.861903667449951,-1.1643091440200806
1717009645514662100,8.069662109375,4.212526798248291,-2.3878722190856934,-3.7391061782836914
1717009645554701000,8.109701171875,4.183815956115723,-3.2595770359039307,-1.624901533126831
1717009645594674400,8.14967431640625,3.397021532058716,-2.5925121307373047,-1.4257594347000122
1717009645634688500,8.1896884765625,1.8692476749420166,-1.7482963800430298,-2.5784621238708496
1717009645674663700,8.22966357421875,0.009773843921720982,-1.5735888481140137,-0.1918116807937622
1717009645714669300,8.26966943359375,-2.2088887691497803,-1.7544050216674805,-1.660942554473877
1717009645754681000,8.30968115234375,-3.7507126331329346,-0.8252789378166199,-2.9462029933929443
1717009645794659000,8.3496591796875,-4.605924129486084,0.054367005825042725,-2.4275784492492676
1717009645834666800,8.389666748046874,-5.533217430114746,1.3078625202178955,-0.4764748811721802
1717009645874678300,8.42967822265625,-6.216164588928223,0.9682214260101318,0.8515461683273315
1717009645914684700,8.4696845703125,-5.288260459899902,0.608421802520752,0.5473352670669556
1717009645954659800,8.509659912109376,-3.28828763961792,-0.2577851414680481,0.8026769161224365
1717009645994673700,8.549673583984376,-1.6047430038452148,-1.073290228843689,1.8723019361495972
1717009646034681900,8.589681884765625,0.4966334402561188,-0.48197266459465027,2.0531179904937744
1717009646074654700,8.62965478515625,1.8985692262649536,-0.7147123217582703,1.6395623683929443
1717009646114666500,8.66966650390625,3.670689344406128,-2.6083946228027344,-0.036041051149368286
1717009646154676700,8.7096767578125,4.927238941192627,-3.433673620223999,-1.9339994192123413
1717009646194680000,8.74968017578125,6.167906284332275,-4.010941028594971,-3.9767327308654785
1717009646234663200,8.7896630859375,4.7054948806762695,-4.423886299133301,-4.918076038360596
1717009646274672000,8.829672119140625,4.014606475830078,-4.5381178855896,-5.888130187988281
1717009646314675200,8.86967529296875,3.9211440086364746,-4.676173686981201,-8.989493370056152
1717009646354689000,8.90968896484375,1.0690141916275024,-1.1520918607711792,-15.33088493347168
1717009646394665700,8.949665771484375,-2.702467918395996,-0.3597996234893799,-11.13729476928711
1717009646434670600,8.989670654296875,-1.9199494123458862,-4.402505874633789,2.47094988822937
1717009646474684200,9.02968408203125,-0.21868975460529327,-3.3322699069976807,-0.8478809595108032
1717009646514660000,9.06966015625,1.5522085428237915,1.5821410417556763,-5.711589813232422
1717009646554665200,9.109665283203125,3.38297176361084,0.9101892113685608,-5.686544418334961
1717009646594679000,9.149678955078125,3.1031954288482666,2.7543914318084717,-2.7647759914398193
1717009646634687700,9.189687744140626,0.5296201705932617,5.434867858886719,2.4917192459106445
1717009646674662700,9.22966259765625,-1.6401731967926025,2.330451011657715,6.487389087677002
1717009646714672400,9.26967236328125,-2.4239132404327393,1.531439185142517,7.535022735595703
1717009646754680600,9.3096806640625,-2.6700918674468994,1.1691961288452148,5.582086563110352
1717009646794656000,9.349656005859375,-2.6481008529663086,-0.06902777403593063,3.4800992012023926
1717009646834667300,9.389667236328124,-2.222327709197998,-0.7476990818977356,4.271169662475586
1717009646874678300,9.42967822265625,-1.2229522466659546,-0.7452555894851685,1.6187928915023804
1717009646914682000,9.46968212890625,0.3781255781650543,1.0317513942718506,-0.22846360504627228
1717009646954662700,9.50966259765625,0.6823364496231079,0.45142942667007446,0.015271631069481373
1717009646994673700,9.549673583984376,1.4007140398025513,1.0781772136688232,-1.0433578491210938
1717009647034676700,9.5896767578125,1.6010777950286865,0.636521577835083,-3.307835340499878
1717009647074657500,9.629657470703124,1.4214833974838257,-1.825876235961914,-4.9565606117248535
1717009647114668300,9.669668212890626,1.6578882932662964,-0.7452555894851685,-7.414071559906006
1717009647154673700,9.709673583984374,0.1062905490398407,-1.1233811378479004,-6.331618309020996
1717009647194683000,9.749682861328125,-1.3897184133529663,-0.40256020426750183,-2.456289052963257
1717009647234661600,9.78966162109375,-1.8784105777740479,-3.6645805835723877,0.07513642311096191
1717009647274669000,9.8296689453125,-1.9602665901184082,-4.306600093841553,1.2877039909362793
1717009647314680600,9.8696806640625,-1.9309450387954712,-2.8967230319976807,1.5595389604568481
1717009647354689800,9.909689697265625,-2.4752259254455566,-0.32009339332580566,2.4996604919433594
1717009647394664200,9.949664306640624,-2.4862215518951416,1.8741345405578613,2.5925121307373047
1717009647434673700,9.989673583984375,-1.6603317260742188,2.6981918811798096,1.871691107749939
1717009647474684400,10.029684326171875,-3.517972946166992,1.9034560918807983,2.7794368267059326
1717009647514657300,10.0696572265625,-4.433049201965332,2.915048837661743,4.159992218017578
1717009647554668800,10.109668701171875,-4.346306324005127,1.4159855842590332,4.318817138671875
1717009647594679300,10.14967919921875,-2.7714955806732178,0.9480628371238708,3.5827245712280273
1717009647634685000,10.189684814453125,-1.0085384845733643,0.6957755088806152,1.3365731239318848
1717009647674664200,10.229664306640625,-0.08979719132184982,0.15760323405265808,0.32498031854629517
1717009647714672400,10.26967236328125,1.0067058801651,-0.04764748737215996,0.6792821288108826
1717009647754678800,10.3096787109375,2.253481864929199,-0.6792821288108826,0.5711590051651001
1717009647794659000,10.3496591796875,3.4721579551696777,-0.21380282938480377,-0.34208452701568604
1717009647834669600,10.389669677734375,4.719544887542725,-0.9095783233642578,-1.356731653213501
1717009647874673000,10.4296728515625,6.175236701965332,-1.2950342893600464,-2.1728477478027344
1717009647914684700,10.4696845703125,5.533217430114746,-1.284038782119751,-2.2620339393615723
1717009647954662700,10.50966259765625,4.834998607635498,-1.674992561340332,-0.7898487448692322
1717009647994670600,10.549670654296875,2.905885934829712,-1.2223412990570068,-0.7574729323387146
1717009648034681900,10.589681884765625,1.492343783378601,-1.7220290899276733,-1.3671164512634277
1717009648074658300,10.629658203125,0.12767083942890167,-2.2321016788482666,0.8038986921310425
1717009648114663400,10.669663330078125,-1.254717230796814,-0.22540926933288574,1.5625933408737183
1717009648154675200,10.70967529296875,-3.28828763961792,-0.979827880859375,1.0793988704681396
1717009648194683100,10.74968310546875,-4.8392744064331055,0.9297369122505188,-1.3744467496871948
1717009648234660400,10.789660400390625,-5.060407638549805,2.9040534496307373,-0.6224716901779175
1717009648274672000,10.829672119140625,-4.480696678161621,3.156951665878296,2.7397305965423584
1717009648314678500,10.869678466796875,-6.307794570922852,2.285857677459717,2.9388725757598877
1717009648354684200,10.90968408203125,-6.224716663360596,2.604729413986206,2.0225749015808105
1717009648394667500,10.94966748046875,-4.589430809020996,1.147204875946045,1.1343767642974854
1717009648434673700,10.989673583984375,-3.050661087036133,1.4550809860229492,-0.15882496535778046
1717009648474679000,11.029678955078126,-1.4776830673217773,0.6542366743087769,0.1966986060142517
1717009648514660000,11.06966015625,-0.06780604273080826,0.15454891324043274,0.6023131608963013
1717009648554668800,11.109668701171875,1.0897835493087769,0.5693264007568359,-0.014049900695681572
1717009648594675200,11.14967529296875,2.2198843955993652,0.16493362188339233,-0.0806342139840126
1717009648634688000,11.18968798828125,4.350582122802734,-0.2736676335334778,-1.0702359676361084
1717009648674663700,11.22966357421875,6.773273944854736,-1.047023057937622,-2.394591808319092
1717009648714669300,11.26966943359375,6.642548561096191,-0.9053022861480713,-3.3493740558624268
1717009648754680800,11.309680908203125,5.149593830108643,-2.012190103530884,-3.154508113861084
1717009648794661400,11.349661376953126,3.921754837036133,-1.5723671913146973,-2.5644123554229736
1717009648834664700,11.389664794921876,2.551584243774414,-1.6462818384170532,-1.737911581993103
1717009648874676700,11.4296767578125,1.3561208248138428,-1.5894713401794434,-0.8442157506942749
1717009648914684400,11.469684326171874,-0.18631389737129211,-0.3286454975605011,-0.6743952035903931
1717009648954659600,11.50965966796875,-1.8411478996276855,0.012217304669320583,0.5369505286216736
1717009648994671900,11.549671875,-2.930931329727173,-0.02687807008624077,0.6157521605491638
1717009649034681900,11.589681884765625,-3.4941492080688477,1.42637038230896,-0.2877175211906433
1717009649074657000,11.629656982421874,-3.4910948276519775,1.5308283567428589,-0.16982053220272064
1717009649114666500,11.66966650390625,-4.615697860717773,1.4605787992477417,2.2455406188964844
1717009649154674400,11.70967431640625,-5.119661808013916,1.29381263256073,2.6200010776519775
1717009649194734300,11.749734375,-4.147775173187256,1.4593570232391357,0.4709770977497101
1717009649234713300,11.78971337890625,-2.8435776233673096,1.5699236392974854,-0.9621127843856812
1717009649274722000,11.82972216796875,-1.8765780925750732,0.7538077235221863,0.05314527451992035
1717009649314728000,11.86972802734375,-1.1313223838806152,0.1716531366109848,0.513737678527832
1717009649354740000,11.909739990234375,-0.42210787534713745,-0.3280346393585205,0.7183775305747986
1717009649394719500,11.949719482421875,0.9089674949645996,-1.4929546117782593,0.27488934993743896
1717009649434725600,11.9897255859375,2.1087067127227783,-1.2980886697769165,-1.2589932680130005
1717009649474734300,12.029734375,5.406768321990967,-1.3420709371566772,-4.159992218017578
1717009649514712300,12.06971240234375,5.2638258934021,-3.486818790435791,-1.264491081237793
1717009649554752300,12.109752197265625,3.7568211555480957,-3.19054913520813,-1.0299187898635864
1717009649594731800,12.149731689453125,3.5460727214813232,-2.797762870788574,-3.204599142074585
1717009649634740200,12.189740234375,3.265685558319092,-2.945592164993286,-2.4685065746307373
1717009649674713000,12.229713134765625,2.334116220474243,-2.202169179916382,-2.2119431495666504
1717009649714725000,12.26972509765625,1.588249683380127,-1.074512004852295,-2.9187140464782715
1717009649754733800,12.30973388671875,0.18875735998153687,-0.8491026759147644,-2.30051851272583
1717009649794708500,12.34970849609375,-1.3555099964141846,-1.1612548828125,-2.5778512954711914
1717009649834720000,12.389719970703124,-2.6419920921325684,0.26939156651496887,-3.8429532051086426
1717009649874732500,12.429732666015624,-2.5583035945892334,2.3542747497558594,-3.6755762100219727
1717009649914736000,12.469736083984374,-4.055534362792969,0.6921103000640869,0.3933972120285034
1717009649954717200,12.50971728515625,-4.541172027587891,0.6530149579048157,2.03540301322937
1717009649994723600,12.5497236328125,-4.470311641693115,1.0506882667541504,1.074512004852295
1717009650034729200,12.589729248046876,-3.2058207988739014,1.2247848510742188,-0.09957103431224823
1717009650074712300,12.62971240234375,-2.0341813564300537,0.6328563690185547,0.4746423065662384
1717009650114718700,12.66971875,-0.9853256344795227,-0.8234463334083557,1.6701055765151978
1717009650154725600,12.7097255859375,-0.13377949595451355,-1.3341296911239624,1.588249683380127
1717009650194735900,12.74973583984375,0.5919284224510193,-1.2198978662490845,0.3481931984424591
1717009650234691600,12.789691650390624,1.0922271013259888,-1.6273449659347534,-0.15760323405265808
1717009650275250400,12.83025048828125,4.002388954162598,-2.4801127910614014,-1.8319848775863647
1717009650315259100,12.870259033203125,6.705467700958252,-3.6303720474243164,-2.6621506214141846
1717009650355267600,12.910267578125,4.291328430175781,-2.2571470737457275,-0.921795666217804
1717009650395245800,12.950245849609376,2.8124237060546875,-0.8875871896743774,-2.1502456665039062
1717009650435254300,12.990254150390625,1.95965576171875,-0.5375614166259766,-3.118467092514038
1717009650475262700,13.0302626953125,1.1728612184524536,-0.8784242272377014,-1.8503108024597168
1717009650515271400,13.070271484375,0.5821545720100403,-0.7464773058891296,-1.4227051734924316
1717009650555249400,13.11024951171875,-0.48319441080093384,-0.04459316283464432,-1.368949055671692
1717009650595257900,13.1502578125,-2.0134117603302,-0.15821409225463867,-1.2315043210983276
1717009650635266600,13.1902666015625,-2.118480682373047,0.13744467496871948,-1.0629055500030518
1717009650675244500,13.23024462890625,-2.58457088470459,0.8301658630371094,-0.7183775305747986
1717009650715253000,13.2702529296875,-2.1850650310516357,0.5174028873443604,-0.04398229718208313
1717009650755261400,13.310261474609375,-2.8955013751983643,0.07941248267889023,1.3823879957199097
1717009650795270100,13.350270263671876,-3.1367931365966797,0.04581489413976669,0.49296826124191284
1717009650835248000,13.390248046875,-4.176485538482666,1.4367550611495972,0.19120082259178162
1717009650875256600,13.430256591796875,-3.5802812576293945,0.969443142414093,1.2107349634170532
1717009650915265300,13.470265380859376,-2.630385637283325,0.32009339332580566,1.7140878438949585
1717009650955243300,13.5102431640625,-1.4495831727981567,0.3781255781650543,0.7336491346359253
1717009650995252000,13.550251953125,-0.37262779474258423,0.029932396486401558,0.07513642311096191
1717009651035260400,13.590260498046876,0.7922922372817993,-0.6279694437980652,0.49357911944389343
1717009651075268900,13.630268798828125,1.2479976415634155,-1.1636983156204224,0.7354817390441895
1717009651115247000,13.6702470703125,2.669481039047241,-0.99876469373703,-1.0977247953414917
1717009651155255000,13.710255126953125,5.393939971923828,-1.5180001258850098,-2.5705208778381348
1717009651195263700,13.750263671875,4.617530345916748,-2.41719388961792,-1.027475357055664
1717009651235241700,13.79024169921875,4.321871757507324,-1.6071864366531372,-1.1801916360855103
1717009651275250700,13.830250732421876,3.3658676147460938,-1.7464637756347656,-1.7922786474227905
1717009651315259400,13.87025927734375,2.135584831237793,-1.568701982498169,-1.1160508394241333
1717009651355267600,13.910267578125,1.1166616678237915,-1.4220943450927734,-0.7318165898323059
1717009651395245800,13.950245849609376,-0.021991148591041565,-0.2919935882091522,-1.004873275756836
1717009651435254300,13.990254150390625,-0.8026769161224365,0.23090706765651703,-0.3732386529445648
1717009651475262700,14.0302626953125,-2.288912057876587,-0.930347740650177,-0.504574716091156
1717009651515271400,14.070271484375,-2.8240299224853516,0.9352346658706665,-1.2388347387313843
1717009651555249400,14.11024951171875,-3.921754837036133,0.8772025108337402,0.10995574295520782
1717009651595257900,14.1502578125,-3.9706242084503174,0.9065240025520325,1.0366383790969849
1717009651635266600,14.1902666015625,-4.695110321044922,1.9101755619049072,1.0403034687042236
1717009651675244500,14.23024462890625,-4.728707790374756,2.3597724437713623,1.5613715648651123
1717009651715253200,14.270253173828126,-3.131906032562256,0.9053022861480713,1.863139033317566
1717009651755261400,14.310261474609375,-2.0036380290985107,0.4905247986316681,0.29565876722335815
1717009651795270100,14.350270263671876,-0.3194825351238251,1.4520267248153687,-0.44165557622909546
1717009651835248000,14.390248046875,0.27488934993743896,0.2773328125476837,1.1533136367797852
1717009651875256600,14.430256591796875,0.949895441532135,0.02382374368607998,0.5106833577156067
1717009651915265300,14.470265380859376,2.420248031616211,0.313373863697052,-0.9767735004425049
1717009651955243300,14.5102431640625,4.4733662605285645,-0.7226535677909851,-1.8680258989334106
1717009651995252000,14.550251953125,6.388428688049316,-2.0983221530914307,-2.0836613178253174
1717009652035260400,14.590260498046876,4.3731842041015625,-1.2651019096374512,-0.49235737323760986
1717009652075291400,14.63029150390625,4.62913703918457,-0.7556403279304504,-1.4159855842590332
1717009652115847000,14.670846923828124,4.62913703918457,-0.7556403279304504,-1.4159855842590332
1717009652155855600,14.710855712890625,2.378098487854004,-1.6969836950302124,-0.04581489413976669
1717009652195864800,14.75086474609375,0.9865473508834839,-0.4282165467739105,-0.5644394755363464
1717009652235839000,14.7908388671875,-1.2907582521438599,0.5326744914054871,-0.6633996367454529
1717009652275851500,14.8308515625,-3.0182852745056152,-0.37629300355911255,-0.43249258399009705
1717009652315860000,14.87085986328125,-3.7397170066833496,0.3219259977340698,-1.208902359008789
1717009652355865300,14.910865234375,-4.064086437225342,1.9792033433914185,-1.0903944969177246
1717009652395848700,14.9508486328125,-3.5631768703460693,1.423926830291748,0.9676105380058289
1717009652435857200,14.990857177734375,-4.882646083831787,1.6688838005065918,1.7513506412506104
1717009652475862800,15.03086279296875,-5.183191776275635,2.7824912071228027,1.606575608253479
1717009652515841500,15.070841552734375,-3.665191411972046,1.806328535079956,1.5338826179504395
1717009652555852300,15.110852294921875,-2.3457224369049072,0.7568620443344116,0.8069530129432678
1717009652595856100,15.150856201171875,-1.338405728340149,0.8827002644538879,-0.09957103431224823
1717009652635867400,15.190867431640624,-0.06475171446800232,0.05497787147760391,0.29504790902137756
1717009652675846000,15.230845947265625,0.38117989897727966,-0.3878994286060333,0.5400048494338989
1717009652715850800,15.270850830078125,1.303586483001709,-0.28527405858039856,-0.03726277872920036
1717009652755863600,15.310863525390625,3.813631772994995,-1.777006983757019,-0.4642575979232788
1717009652795840500,15.350840576171874,5.850256443023682,-2.079385280609131,-2.1056525707244873
1717009652835848000,15.390847900390625,4.996266841888428,-1.6945401430130005,-1.8026633262634277
1717009652875859700,15.430859619140625,5.199685096740723,-2.372600555419922,-0.79840087890625
1717009652915868000,15.470867919921876,4.43366003036499,-1.7739527225494385,-1.131933331489563
1717009652955841300,15.51084130859375,2.66031813621521,-1.015868902206421,-2.2101104259490967
1717009652995855400,15.55085546875,1.197295904159546,-1.0024298429489136,-1.4776830673217773
1717009653035861500,15.590861572265625,-0.5369505286216736,-0.6304129362106323,-0.11239920556545258
1717009653075837000,15.6308369140625,-2.3713788986206055,0.001832595793530345,-0.2174680233001709
1717009653115847700,15.67084765625,-3.1526756286621094,0.2474004179239273,-0.40194934606552124
1717009653155858000,15.71085791015625,-3.3408219814300537,0.53328537940979,-0.2889392673969269
1717009653195863800,15.75086376953125,-4.369519233703613,0.9706648588180542,0.49235737323760986
1717009653235844600,15.7908447265625,-4.513683319091797,0.7153232097625732,1.2797627449035645
1717009653275853600,15.830853515625,-4.419610023498535,0.1411098688840866,1.585806131362915
1717009653315859200,15.870859130859374,-3.3102786540985107,0.31031954288482666,0.34697145223617554
1717009653355870500,15.910870361328126,-1.9144517183303833,0.6670648455619812,-0.48258355259895325
1717009653395846400,15.950846435546875,-0.015271631069481373,-0.2028072625398636,0.685390830039978
1717009653435852000,15.99085205078125,1.3573426008224487,-1.2901474237442017,0.846659243106842
1717009653475864600,16.030864501953126,1.9559905529022217,-1.9272798299789429,0.4746423065662384
1717009653515844400,16.07084423828125,3.048217535018921,-2.766608715057373,-0.15515977144241333
1717009653555879700,16.110879638671875,4.4788641929626465,-3.8368446826934814,-1.9804251194000244
1717009653595858700,16.150858642578125,5.511226177215576,-3.964515447616577,-3.07692813873291
1717009653635867100,16.1908671875,5.401270389556885,-5.001153945922852,-3.6053266525268555
1717009653675842300,16.23084228515625,5.1630330085754395,-3.6951239109039307,-4.8111748695373535
1717009653715853800,16.270853759765625,4.368908405303955,-3.528357744216919,-4.105625152587891
1717009653755864300,16.3108642578125,3.3713653087615967,-2.778215169906616,-3.4300084114074707
1717009653795837200,16.350837158203124,1.6878206729888916,-1.3634512424468994,-4.145942211151123
1717009653835851500,16.3908515625,0.4404338300228119,-1.150259256362915,-3.528968572616577
1717009653875857200,16.430857177734374,-0.8216137290000916,-1.197295904159546,-2.5900685787200928
1717009653915862800,16.47086279296875,-2.3011293411254883,0.1472185254096985,-2.8961122035980225
1717009653955846100,16.51084619140625,-3.2876768112182617,0.6017022728919983,-2.9779679775238037
1717009653995854800,16.550854736328127,-4.167933464050293,0.7086036801338196,-2.5253169536590576
1717009654035860200,16.590860107421875,-3.9577958583831787,0.09529497474431992,-0.6450737118721008
1717009654075841300,16.63084130859375,-4.130059719085693,-1.0726794004440308,0.8002334833145142
1717009654115849700,16.670849609375,-3.944356918334961,-0.3885102868080139,0.15454891324043274
1717009654155855000,16.710855224609375,-3.1746666431427,-0.1368338167667389,-0.1411098688840866
1717009654195866600,16.75086669921875,-1.8765780925750732,-0.24373523890972137,0.0507018156349659
1717009654235842600,16.790842529296874,-0.43249258399009705,-1.5827518701553345,0.8546004891395569
1717009654275849000,16.830848876953127,1.103833556175232,-1.4453071355819702,0.5076290369033813
1717009654315860700,16.87086083984375,1.977981686592102,-1.6670511960983276,0.006719517521560192
1717009654355868700,16.91086865234375,3.5460727214813232,-2.434908866882324,-0.5546656250953674
1717009654395843600,16.950843505859375,4.486805438995361,-2.886949062347412,-1.5766432285308838
1717009654435855000,16.990855224609376,5.211902141571045,-2.4300220012664795,-2.9327640533447266
1717009654475863800,17.03086376953125,4.8533244132995605,-2.023796558380127,-3.1807754039764404
1717009654515840800,17.0708408203125,4.03598690032959,-1.7354681491851807,-2.5314254760742188
1717009654555852300,17.110852294921877,3.403130292892456,-2.233934164047241,-1.0213667154312134
1717009654595861000,17.150861083984374,2.0922133922576904,-1.4080443382263184,-1.1636983156204224
1717009654635864300,17.1908642578125,0.39767327904701233,-0.7250970602035522,-1.5778648853302002
1717009654675846000,17.230845947265625,-1.3084733486175537,-1.1154398918151855,-0.036651913076639175
1717009654715853800,17.270853759765625,-2.6108381748199463,-0.8894197940826416,1.3768903017044067
1717009654755862300,17.3108623046875,-2.9993484020233154,-0.9553932547569275,0.4538728892803192
1717009654795842800,17.3508427734375,-3.1746666431427,2.4049763679504395,-2.233934164047241
1717009654835851300,17.390851318359374,-3.138014793395996,1.7696765661239624,0.02687807008624077
1717009654875856600,17.430856689453126,-4.021326065063477,1.5968017578125,1.320690631866455
1717009654915868000,17.470867919921876,-5.3976054191589355,2.4190263748168945,0.47342056035995483
1717009654955846100,17.51084619140625,-4.375016689300537,2.071444034576416,0.7312057018280029
1717009654995852000,17.55085205078125,-2.944981336593628,1.120937705039978,0.5387831330299377
1717009655035861200,17.590861328125,-1.6908750534057617,1.6041321754455566,-0.598647952079773
1717009655075839000,17.6308388671875,-0.33658674359321594,0.7812966704368591,0.35613444447517395
1717009655115845000,17.67084521484375,0.1313360333442688,0.27000242471694946,1.4001030921936035
1717009655155857700,17.710857666015624,1.4086552858352661,0.5051855444908142,0.3830125033855438
1717009655195867400,17.750867431640625,3.498425245285034,-0.17592918872833252,-0.7354817390441895
1717009655235839200,17.790839111328125,5.480682849884033,-0.9932668805122375,-1.5277739763259888
1717009655275851500,17.8308515625,5.431813716888428,-2.2650883197784424,0.00855211354792118
1717009655315862000,17.870862060546877,5.375003337860107,-0.970054030418396,-0.9810495972633362
1717009655355867600,17.91086767578125,4.308432579040527,-0.6212499737739563,-1.940108060836792
1717009655395848700,17.9508486328125,2.919325113296509,-0.8943067193031311,-1.310916781425476
1717009655435855000,17.990855224609376,1.4679092168807983,-1.356731653213501,-0.5094616413116455
1717009655475860500,18.030860595703125,-0.23457226157188416,-0.012828170321881771,-0.5326744914054871
1717009655515841500,18.070841552734375,-1.4288138151168823,0.18997909128665924,0.32009339332580566
1717009655555850800,18.110850830078125,-2.6529877185821533,0.4147774875164032,0.5534439086914062
1717009655595856000,18.15085595703125,-3.050661087036133,1.8979582786560059,-0.24068090319633484
1717009655635869400,18.190869384765627,-2.872288465499878,1.2877039909362793,1.6218472719192505
1717009655675847400,18.230847412109377,-4.329202175140381,1.539380431175232,2.9492573738098145
1717009655715853000,18.27085302734375,-4.386623382568359,1.8472565412521362,1.9816468954086304
1717009655755862300,18.3108623046875,-3.5613443851470947,0.6682865619659424,1.7244726419448853
1717009655795842600,18.350842529296877,-2.870455741882324,1.6084082126617432,-0.2480112910270691
1717009655835846700,18.3908466796875,-1.540602207183838,1.3176363706588745,-0.7177666425704956
1717009655875857700,18.430857666015626,-0.04764748737215996,0.2015855312347412,0.7385360598564148
1717009655915865900,18.470865966796875,1.33168625831604,0.8643743395805359,0.6713408827781677
1717009655955843300,18.51084326171875,3.4917056560516357,0.04398229718208313,0.16004669666290283
1717009655995852500,18.5508525390625,4.619973659515381,-1.7140878438949585,-1.0531316995620728
1717009656035861200,18.590861328125,4.511240005493164,-1.3952162265777588,-2.236377716064453
1717009656075838500,18.63083837890625,4.032932281494141,-1.9223929643630981,-1.5766432285308838
1717009656115850000,18.67085009765625,3.361591339111328,-2.310903310775757,-0.788016140460968
1717009656155856000,18.71085595703125,1.890017032623291,-1.4764612913131714,-1.8295414447784424
1717009656195864300,18.7508642578125,0.37690386176109314,-0.503963828086853,-1.6139060258865356
1717009656235842800,18.7908427734375,-1.189354658126831,-0.20036379992961884,0.13805554807186127
1717009656275852000,18.83085205078125,-3.240640163421631,1.1606439352035522,-0.27611109614372253
1717009656315857700,18.870857666015624,-4.0072760581970215,1.3536773920059204,0.16371189057826996
1717009656355869000,18.910868896484374,-4.316373825073242,2.3628268241882324,-0.31093040108680725
1717009656395848700,18.9508486328125,-2.652376890182495,2.6364943981170654,0.979827880859375
1717009656435854000,18.99085400390625,-4.128838062286377,0.8649851679801941,4.331645488739014
1717009656475865900,19.030865966796874,-4.712825298309326,1.832595705986023,2.532036542892456
1717009656515843600,19.070843505859376,-3.7983601093292236,1.6920967102050781,1.0500773191452026
1717009656555849500,19.110849365234376,-1.8277088403701782,1.2486085891723633,-0.20952677726745605
1717009656595859200,19.150859130859374,-0.10262536257505417,1.1032226085662842,0.19425514340400696
1717009656635867100,19.1908671875,0.8197811841964722,1.1612548828125,0.6805039048194885
1717009656675843000,19.230843017578124,2.1252002716064453,1.149037480354309,-0.08979719132184982
1717009656715856100,19.270856201171874,3.263853073120117,0.9999864101409912,-0.789237916469574
1717009656755862300,19.3108623046875,4.960836887359619,-0.0959058403968811,-1.2333369255065918
1717009656795837400,19.35083740234375,4.499633312225342,0.23518311977386475,-1.5876387357711792
1717009656835851000,19.39085107421875,4.401284217834473,0.7006624341011047,-2.0250182151794434
1717009656875859700,19.430859619140627,4.49413537979126,-1.0946705341339111,0.9663888216018677
1717009656915865000,19.470864990234375,3.0243937969207764,-0.8038986921310425,0.7489207983016968
1717009656955844000,19.510843994140625,1.870469331741333,-0.7623597979545593,0.6090326309204102
1717009656995853000,19.55085302734375,0.8839219808578491,-1.4410310983657837,2.299907684326172
1717009657035858400,19.5908583984375,-0.43737950921058655,-0.10262536257505417,2.3829853534698486
1717009657075839700,19.63083984375,-2.110539436340332,1.0317513942718506,1.5919147729873657
1717009657115850000,19.67085009765625,-3.1844406127929688,1.6120734214782715,1.2870930433273315
1717009657155855000,19.710855224609375,-3.7818667888641357,2.9382617473602295,1.054964303970337
1717009657195863300,19.75086328125,-4.042095184326172,2.6145031452178955,3.3096678256988525
1717009657235817500,19.7908173828125,-4.561330795288086,1.9339994192123413,4.748866558074951
1717009657276376600,19.83137646484375,-4.617530345916748,0.6328563690185547,3.2736268043518066
1717009657316385300,19.87138525390625,-3.6334264278411865,-0.11789698898792267,1.730581283569336
1717009657356393700,19.911393798828126,-2.4489588737487793,1.2101240158081055,-0.28588494658470154
1717009657396372000,19.9513720703125,-0.8234463334083557,1.0555751323699951,-0.6792821288108826
1717009657436380400,19.99138037109375,0.35124751925468445,0.940732479095459,-0.6145304441452026
1717009657476388900,20.031388916015626,1.673770785331726,0.8943067193031311,-0.6786713004112244
1717009657516397600,20.0713974609375,3.017674207687378,1.036027431488037,-1.949881911277771
1717009657556404200,20.111404296875,5.110498428344727,0.5283984541893005,-3.5943310260772705
1717009657596384000,20.151384033203126,5.128213882446289,-1.1441506147384644,-0.9199630618095398
1717009657636392400,20.191392333984375,2.6200010776519775,0.6939429044723511,-1.4330898523330688
1717009657676370400,20.231370361328125,2.1649065017700195,-0.11728613078594208,-1.06351637840271
1717009657716379100,20.271379150390626,1.711033582687378,-1.6291775703430176,0.9657779335975647
1717009657756387800,20.311387939453127,1.1869112253189087,-1.171028733253479,0.44226643443107605
1717009657796396300,20.351396240234376,0.5283984541893005,-0.8069530129432678,1.2834278345108032
1717009657836374300,20.391374267578126,-0.616973876953125,0.7012733221054077,0.9975429177284241
1717009657876382700,20.4313828125,-1.406822681427002,1.6633861064910889,2.1514673233032227
1717009657916391400,20.471391357421876,-2.076941728591919,2.615114212036133,3.1899383068084717
1717009657956369400,20.511369384765626,-1.95965576171875,3.8893790245056152,2.9266552925109863
1717009657996377900,20.5513779296875,-2.6841418743133545,3.558900833129883,4.511850833892822
1717009658036386300,20.59138623046875,-3.629150390625,2.39520263671875,5.05857515335083
1717009658076395000,20.63139501953125,-4.426329612731934,1.5943583250045776,2.3316726684570312
1717009658116373200,20.671373291015627,-4.472755432128906,2.3377811908721924,-0.33597588539123535
1717009658156984000,20.711984130859374,-4.340197563171387,2.411695957183838,-0.4801400899887085
1717009658196991000,20.751990966796875,-4.340197563171387,2.411695957183838,-0.4801400899887085
1717009658236966100,20.791966064453124,-0.7489207983016968,1.131933331489563,0.24373523890972137
1717009658276977700,20.831977783203126,0.8350527882575989,0.7031059265136719,0.39767327904701233
1717009658316988200,20.87198828125,1.9816468954086304,0.2321287989616394,0.46853363513946533
1717009658356963000,20.911963134765625,2.772717237472534,0.14049901068210602,-0.1661553531885147
1717009658396972500,20.95197265625,3.813631772994995,-0.3738495409488678,-1.0329731702804565
1717009658436981200,20.991981201171875,5.075068473815918,-0.8515461683273315,-1.5204435586929321
1717009658476989000,21.031989013671875,3.7415497303009033,-1.1380419731140137,0.7055493593215942
1717009658516969700,21.0719697265625,1.291369080543518,0.6921103000640869,-1.0024298429489136
1717009658556976000,21.11197607421875,0.5845980644226074,0.3170390725135803,-1.7941112518310547
1717009658596982300,21.151982177734375,-0.0757472887635231,-0.29626965522766113,-0.8106181621551514
1717009658636962600,21.191962646484374,-0.769079327583313,-0.2541199326515198,-0.18325957655906677
1717009658676971800,21.2319716796875,-1.6022995710372925,-0.029932396486401558,0.04153883829712868
1717009658716977000,21.271976806640627,-2.4269676208496094,0.5632177591323853,-0.2064724564552307
1717009658756988400,21.311988525390625,-3.422677993774414,1.4001030921936035,-1.0311405658721924
1717009658796970800,21.351970703125,-2.8185322284698486,1.356731653213501,0.5290092825889587
1717009658836974000,21.39197412109375,-3.8851029872894287,0.17959438264369965,3.8258490562438965
1717009658876985600,21.431985595703125,-4.396397113800049,0.9957103729248047,2.349998712539673
1717009658916994300,21.471994384765626,-4.263839244842529,1.2479976415634155,1.0543533563613892
1717009658956967200,21.51196728515625,-3.318830966949463,1.2663236856460571,-0.26511552929878235
1717009658996980700,21.551980712890625,-1.6126842498779297,1.1441506147384644,-0.15332718193531036
1717009659036987100,21.591987060546874,-0.059864792972803116,0.6224716901779175,0.11972958594560623
1717009659076962000,21.631962158203127,1.330464482307434,0.413555771112442,-0.6188064813613892
1717009659116974000,21.67197412109375,2.0922133922576904,0.5876523852348328,-1.0073168277740479
1717009659156984800,21.71198486328125,2.922990083694458,0.4105014503002167,-1.1258246898651123
1717009659196987400,21.7519873046875,4.712825298309326,-0.24862214922904968,-2.0537290573120117
1717009659236969000,21.791968994140625,5.7213640213012695,-1.5357152223587036,-1.9046778678894043
1717009659276979700,21.831979736328126,4.608978271484375,-1.0268645286560059,-0.5002986192703247
1717009659316985300,21.8719853515625,2.8466320037841797,-0.1368338167667389,-1.218676209449768
1717009659356964000,21.911964111328125,1.7318029403686523,-1.2321151494979858,-0.2877175211906433
1717009659396972800,21.951972900390626,0.33169981837272644,-0.8448266386985779,-0.8185594081878662
1717009659436978700,21.991978759765626,-1.3078625202178955,-0.059864792972803116,-1.5949691534042358
1717009659476990000,22.031989990234376,-2.5222625732421875,-0.10384709388017654,0.02687807008624077
1717009659516969700,22.0719697265625,-4.131281852722168,-0.5577199459075928,-0.29077184200286865
1717009659556975400,22.111975341796875,-5.15936803817749,1.4214833974838257,-1.2571606636047363
1717009659596989200,22.1519892578125,-3.8453967571258545,2.088548183441162,0.4905247986316681
1717009659636964900,22.19196484375,-2.984687566757202,1.2638801336288452,4.097073078155518
1717009659676970500,22.231970458984375,-3.7610974311828613,1.0677924156188965,2.9290988445281982
1717009659716982000,22.27198193359375,-2.7366762161254883,1.3060299158096313,1.1704177856445312
1717009659756989200,22.3119892578125,-1.4618005752563477,0.2571742534637451,-0.8436049222946167
1717009659796964000,22.351964111328126,-0.28955012559890747,1.1355985403060913,-1.7886134386062622
1717009659836977700,22.391977783203124,0.6707300543785095,-0.39706242084503174,0.3634648323059082
1717009659876986400,22.431986328125,1.5247195959091187,-0.8576548099517822,0.6395758986473083
1717009659916989200,22.4719892578125,2.20278000831604,-0.4691445231437683,-0.22479841113090515
1717009659956970200,22.51197021484375,3.171001434326172,-0.636521577835083,-0.970054030418396
1717009659996978700,22.551978759765625,4.824002742767334,-2.1282544136047363,-1.9101755619049072
1717009660036984300,22.591984375,4.829500675201416,-2.214386463165283,-2.083050489425659
1717009660076967400,22.631967529296876,4.605924129486084,-1.3652838468551636,-2.7397305965423584
1717009660116976000,22.67197607421875,3.7140607833862305,-1.7916678190231323,-2.001194477081299
1717009660156981200,22.711981201171874,3.240640163421631,-1.95965576171875,-1.378722906112671
1717009660196990500,22.751990478515626,2.2925772666931152,-1.5436564683914185,-1.1856894493103027
1717009660236969500,22.791969482421877,0.8546004891395569,-0.8619308471679688,-1.310916781425476
1717009660276975000,22.83197509765625,-1.027475357055664,-0.3017674386501312,-0.2168571650981903
1717009660316985900,22.87198583984375,-2.5949554443359375,0.4190535545349121,0.11423180252313614
1717009660356964600,22.911964599609377,-3.201544761657715,1.4367550611495972,-0.5491678714752197
1717009660396969700,22.9519697265625,-2.814256191253662,2.515542984008789,-1.036027431488037
1717009660436983000,22.991983154296875,-3.213151216506958,1.1398745775222778,0.7348709106445312
1717009660476991700,23.03199169921875,-4.43366003036499,1.330464482307434,1.5961909294128418
1717009660516966700,23.071966552734374,-4.9449543952941895,1.8686367273330688,1.2791517972946167
1717009660556976000,23.11197607421875,-4.213137626647949,1.4599679708480835,1.1575896739959717
1717009660596985300,23.1519853515625,-3.152064561843872,1.1264355182647705,1.1465940475463867
1717009660636960300,23.191960205078125,-1.4886785745620728,0.44165557622909546,1.2113457918167114
1717009660676971300,23.23197119140625,-0.33169981837272644,-0.5705481171607971,1.4605787992477417
1717009660716980200,23.271980224609376,0.770301103591919,-1.0989465713500977,0.5473352670669556
1717009660756987600,23.311987548828125,2.7311785221099854,-1.5839735269546509,-1.1551461219787598
1717009660796966400,23.35196630859375,4.622417449951172,-1.8069393634796143,-3.1789426803588867
1717009660836974800,23.391974853515624,6.13125467300415,-3.411682367324829,-2.119091510772705
1717009660876982800,23.431982666015625,5.209458827972412,-2.506990909576416,-2.5411994457244873
1717009660916994000,23.471994140625,3.8710529804229736,-2.490497589111328,-2.1001546382904053
1717009660956970200,23.51197021484375,2.0763309001922607,-2.453845739364624,-1.5442672967910767
1717009660996976400,23.551976318359376,1.2247848510742188,-1.843591332435608,-1.6438384056091309
1717009661036987600,23.591987548828126,-0.07941248267889023,-1.0409144163131714,-1.5375478267669678
1717009661076966000,23.6319658203125,-1.9627100229263306,-0.29626965522766113,-1.045190453529358
1717009661116971500,23.671971435546876,-3.1673362255096436,-0.02076941914856434,-0.6279694437980652
1717009661156981800,23.711981689453125,-3.7513234615325928,1.151481032371521,-1.2901474237442017
1717009661196992500,23.751992431640623,-3.4355061054229736,0.7257078886032104,-0.5357288122177124
1717009661236968000,23.791968017578125,-4.967555999755859,1.064738154411316,1.6584991216659546
1717009661276979700,23.831979736328126,-5.258327960968018,2.177734613418579,1.4062118530273438
1717009661316988000,23.87198779296875,-3.7623190879821777,1.0983357429504395,1.890017032623291
1717009661356961300,23.911961181640624,-2.447736978530884,0.38606682419776917,1.2522737979888916
1717009661396974800,23.951974853515626,-1.3194689750671387,-0.08735372871160507,1.0054842233657837
1717009661436981500,23.9919814453125,-0.015882495790719986,-1.36955988407135,0.7874053120613098
1717009661476987100,24.031987060546875,1.236391305923462,-2.177734613418579,0.36713001132011414
1717009661516970200,24.07197021484375,2.6554312705993652,-3.3481523990631104,-0.30482175946235657
1717009661557008600,24.112008544921874,4.209472179412842,-4.089131832122803,-2.0390682220458984
1717009661596981800,24.151981689453127,4.903415203094482,-4.367075443267822,-4.037208557128906
1717009661636962800,24.191962890625,4.321260929107666,-4.253454685211182,-4.776355266571045
1717009661676973300,24.231973388671875,2.8900034427642822,-3.8258490562438965,-5.937610149383545
1717009661716978700,24.271978759765624,2.4049763679504395,-4.9987101554870605,-2.66031813621521
1717009661756990500,24.311990478515625,1.5974125862121582,-3.1202995777130127,-2.780047655105591
1717009661796969200,24.35196923828125,0.12400564551353455,-1.7482963800430298,-3.43978214263916
1717009661836974600,24.391974609375,-0.7764097452163696,-1.5167783498764038,-2.6639833450317383
1717009661876983300,24.4319833984375,-1.8332066535949707,-1.0384708642959595,-1.5271631479263306
1717009661916992500,24.471992431640626,-2.514932155609131,-0.4593706727027893,-1.5552629232406616
1717009661956969200,24.51196923828125,-3.1025846004486084,0.39156460762023926,-2.0030272006988525
1717009661996983000,24.551983154296874,-3.9736783504486084,0.5467243790626526,-1.0140362977981567
1717009662036989400,24.591989501953126,-4.402505874633789,-0.0507018156349659,2.043344259262085
1717009662076964400,24.63196435546875,-4.159992218017578,0.13377949595451355,1.8875735998153687
1717009662116976000,24.67197607421875,-3.662137031555176,0.79840087890625,0.8790351152420044
1717009662156982800,24.711982666015626,-2.2711970806121826,0.5760459303855896,0.8155050873756409
1717009662196988200,24.75198828125,-0.5760459303855896,-0.2791654169559479,0.9358455538749695
1717009662236969000,24.791968994140625,0.9083566069602966,-1.1746938228607178,1.397048830986023
1717009662276977400,24.831977294921874,1.2883148193359375,-1.1068878173828125,0.6487388610839844
1717009662316983000,24.871983154296874,2.1545217037200928,-1.4385876655578613,-0.5925393104553223
1717009662356966100,24.911966064453125,3.802025318145752,-2.6749789714813232,-1.5149458646774292
1717009662396972500,24.95197265625,5.763513565063477,-3.378084897994995,-2.8771753311157227
1717009662436978200,24.991978271484374,5.309030055999756,-3.2070424556732178,-3.0048460960388184
1717009662476991700,25.03199169921875,4.244902610778809,-1.7696765661239624,-3.4959816932678223
1717009662516969700,25.0719697265625,2.9242119789123535,-2.274862289428711,-1.9419406652450562
1717009662556973300,25.111973388671874,1.635897159576416,-1.6975945234298706,-1.8466455936431885
1717009662596985300,25.1519853515625,0.7324274182319641,-1.5063936710357666,-1.7220290899276733
1717009662636962600,25.191962646484374,-0.3219259977340698,-1.0293079614639282,-1.083064079284668
1717009662676968200,25.23196826171875,-1.4911220073699951,-0.3689626157283783,-0.42088615894317627
1717009662716980700,25.271980712890624,-2.339003086090088,0.4893030524253845,-0.5736024379730225
1717009662756988400,25.311988525390625,-2.479501962661743,1.483791708946228,-0.47219884395599365
1717009662796965600,25.351965576171875,-2.8344147205352783,1.8118263483047485,0.827111542224884
1717009662836977200,25.39197705078125,-4.4513750076293945,1.500285029411316,1.884519338607788
1717009662876985600,25.431985595703125,-4.876537322998047,1.2443325519561768,2.5167648792266846
1717009662916989200,25.4719892578125,-4.429383754730225,1.9773707389831543,0.9938777685165405
1717009662956972300,25.51197216796875,-2.777604341506958,2.3157901763916016,0.09162978827953339
1717009662996979700,25.551979736328125,-1.0739010572433472,1.3115277290344238,0.9230173826217651
1717009663036984300,25.591984375,0.1612684279680252,0.6548475623130798,1.588249683380127
1717009663076968000,25.631968017578124,0.7397578358650208,0.23273965716362,1.1337659358978271
1717009663116976000,25.67197607421875,1.5344934463500977,0.2871066629886627,-0.4239404797554016
1717009663156981800,25.711981689453125,3.2229249477386475,-0.5937610268592834,-1.5234979391098022
1717009663196990500,25.751990478515626,5.709146499633789,-1.8796323537826538,-2.6028966903686523
1717009663236969000,25.791968994140625,4.845383167266846,-1.740355134010315,-2.0250182151794434
1717009663276980000,25.83197998046875,3.790418863296509,-1.3084733486175537,-0.26450464129447937
1717009663316964600,25.871964599609374,3.810577392578125,-2.2266037464141846,0.5955936312675476
1717009663357523200,25.912523193359377,2.29746413230896,-1.9034560918807983,0.32986724376678467
1717009663397531600,25.95253173828125,0.7996225953102112,-0.5619960427284241,-0.34697145223617554
1717009663437540400,25.992540283203127,-0.6878342628479004,0.4092797040939331,0.8674286603927612
1717009663477518300,26.032518310546877,-2.2681427001953125,0.6542366743087769,1.4648548364639282
1717009663517527000,26.072527099609374,-3.257744312286377,2.3267858028411865,0.3701843321323395
1717009663557535500,26.112535400390627,-3.015230894088745,3.79958176612854,0.5601634383201599
1717009663597544000,26.1525439453125,-2.310903310775757,1.662164330482483,4.029267311096191
1717009663637522200,26.192522216796874,-4.368297576904297,1.3903292417526245,4.216802597045898
1717009663677530600,26.232530517578127,-4.905247688293457,2.4691174030303955,1.1056660413742065
1717009663717539000,26.2725390625,-3.5698964595794678,1.949881911277771,0.8185594081878662
1717009663757517000,26.31251708984375,-2.116647958755493,0.394618958234787,1.0348057746887207
1717009663797525800,26.35252587890625,-0.9633345007896423,0.49235737323760986,0.4807509481906891
1717009663837534200,26.3925341796875,-0.513737678527832,0.2730567753314972,1.23394775390625
1717009663877542700,26.432542724609377,0.47769662737846375,0.6065891981124878,-0.18081611394882202
1717009663917521000,26.47252099609375,1.9382754564285278,1.0580185651779175,-2.2375993728637695
1717009663957529300,26.512529296875,3.4972035884857178,0.3488040566444397,-3.0610456466674805
1717009663997537800,26.552537841796877,5.429981231689453,-1.4379768371582031,-2.4159719944000244
1717009664037516000,26.59251611328125,4.9871039390563965,-1.673770785331726,-1.015868902206421
1717009664077524500,26.6325244140625,3.106860637664795,-0.637132465839386,-1.5809192657470703
1717009664117533200,26.672533203125,1.7892242670059204,-0.3885102868080139,-2.2088887691497803
1717009664157541000,26.712541015625,1.0873401165008545,-1.2443325519561768,-1.6591099500656128
1717009664197519000,26.75251904296875,0.10690141469240189,-0.5167919993400574,-0.9639453291893005
1717009664237528000,26.792528076171877,-0.9230173826217651,-0.44593164324760437,-0.23335053026676178
1717009664277536500,26.83253662109375,-1.653001308441162,0.7415903806686401,0.6017022728919983
1717009664317545200,26.872545166015627,-2.0360138416290283,1.2278391122817993,1.5320500135421753
1717009664357523200,26.912523193359377,-2.750115394592285,0.9480628371238708,2.665815830230713
1717009664397531600,26.95253173828125,-3.9687914848327637,1.8796323537826538,1.518610954284668
1717009664437540400,26.992540283203127,-3.7311649322509766,1.0512990951538086,2.5308146476745605
1717009664477518300,27.032518310546877,-2.719572067260742,-0.4917465150356293,2.6792550086975098
1717009664517527000,27.072527099609374,-3.1813862323760986,1.253495454788208,-0.39767327904701233
1717009664567721000,27.122720947265623,-3.1813862323760986,1.253495454788208,-0.39767327904701233
1717009664607727900,27.162727783203124,-2.613281488418579,0.3023782968521118,0.21930062770843506
1717009664647733500,27.2027333984375,-1.3322970867156982,0.4856378734111786,-0.4129449129104614
1717009664687716400,27.24271630859375,0.5699372887611389,-0.9657779335975647,-0.4740314185619354
1717009664727725300,27.282725341796876,2.82769513130188,-1.189354658126831,-1.7263051271438599
1717009664767730200,27.322730224609376,5.046968460083008,-2.2272145748138428,-1.1355985403060913
1717009664807741400,27.362741455078126,5.736024856567383,-2.1545217037200928,-0.06108652427792549
1717009664847719700,27.4027197265625,4.181983470916748,-1.3432927131652832,-1.7171422243118286
1717009664887723000,27.442722900390624,3.5460727214813232,-1.395827054977417,-1.642616629600525
1717009664927734500,27.482734619140626,3.050661087036133,-1.9559905529022217,-0.9187413454055786
1717009664967713300,27.52271337890625,1.3726142644882202,-0.9334021210670471,-1.4275920391082764
1717009665007718400,27.562718505859376,-1.0519099235534668,-0.27977627515792847,-1.2003501653671265
1717009665047732500,27.602732421875,-2.9107728004455566,-0.4599815309047699,-1.379333734512329
1717009665087738400,27.64273828125,-3.254689931869507,0.626747727394104,-2.699413537979126
1717009665127715600,27.682715576171876,-2.9248228073120117,-0.18387043476104736,0.13072516024112701
1717009665167726300,27.722726318359374,-4.257730960845947,-0.2015855312347412,2.0341813564300537
1717009665207735300,27.7627353515625,-4.603480339050293,1.2932016849517822,0.3084869384765625
1717009665247710500,27.80271044921875,-3.7397170066833496,1.4624114036560059,-0.007941247895359993
1717009665287720000,27.842719970703126,-2.554638385772705,1.4074335098266602,0.6310238242149353
1717009665327730700,27.882730712890623,-1.3946053981781006,0.5283984541893005,1.1948524713516235
1717009665367736000,27.922736083984375,-0.5998696684837341,0.17776179313659668,1.282817006111145
1717009665407718000,27.9627177734375,-0.1869247704744339,-0.617584764957428,1.0183123350143433
1717009665447726000,28.00272607421875,1.6896532773971558,-2.8594601154327393,-0.33475416898727417
1717009665487730000,28.04272998046875,3.034167766571045,-3.7397170066833496,-1.538158655166626
1717009665527710200,28.082710205078126,5.535660743713379,-4.057366847991943,-2.668259382247925
1717009665567721000,28.122720947265623,4.643797397613525,-3.2876768112182617,-1.7831156253814697
1717009665607726300,28.162726318359375,4.092186450958252,-1.9700404405593872,-1.7812830209732056
1717009665647738000,28.202738037109373,3.4831535816192627,-1.8637498617172241,-1.8643606901168823
1717009665687713800,28.2427138671875,2.607172966003418,-1.683544635772705,-1.3322970867156982
1717009665727719700,28.2827197265625,1.1093312501907349,-0.6340781450271606,-2.006692409515381
1717009665767731200,28.322731201171877,-0.7733554244041443,0.11423180252313614,-2.1539108753204346
1717009665807739100,28.3627392578125,-2.0616703033447266,-0.02626720629632473,-1.4685200452804565
1717009665847715000,28.402715087890623,-2.808147430419922,0.25045475363731384,-1.4593570232391357
1717009665887726600,28.4427265625,-2.689028739929199,0.7061602473258972,-1.149037480354309
1717009665927736600,28.482736572265626,-1.9694294929504395,-0.9321803450584412,0.8344419002532959
1717009665967712000,28.5227119140625,-3.6884043216705322,0.5100724697113037,1.8411478996276855
1717009666007723300,28.56272314453125,-4.175874710083008,1.680490255355835,1.6212363243103027
1717009666047729700,28.602729736328126,-3.031113386154175,1.1252137422561646,0.3488040566444397
1717009666087735300,28.6427353515625,-2.0842721462249756,0.749531626701355,0.036651913076639175
1717009666127716400,28.68271630859375,-1.0170906782150269,-0.9718865752220154,0.4996877610683441
1717009666167724800,28.722724853515626,0.012828170321881771,-1.8655824661254883,0.7556403279304504
1717009666207732700,28.762732666015626,1.3781119585037231,-2.263866662979126,-0.4758640229701996
1717009666247713500,28.802713623046873,2.525927782058716,-2.447736978530884,-1.4911220073699951
1717009666287720000,28.842719970703126,4.053091049194336,-3.302337408065796,-1.5369369983673096
1717009666327725600,28.8827255859375,4.635245323181152,-3.844175100326538,-1.700037956237793
1717009666367736800,28.92273681640625,4.8087310791015625,-2.2815816402435303,-3.1148018836975098
1717009666407717000,28.962717041015626,3.389080286026001,-1.425148606300354,-2.322509765625
1717009666447722800,29.00272265625,2.65726375579834,-2.431243658065796,-0.9205739498138428
1717009666487732500,29.042732421875,1.2663236856460571,-1.4227051734924316,-1.4880677461624146
1717009666527712300,29.082712158203126,-0.039706241339445114,-0.7061602473258972,-2.122145891189575
1717009666567715600,29.122715576171874,-0.9969320893287659,-0.7141014933586121,-0.21441370248794556
1717009666607730200,29.162730224609376,-2.045787811279297,-0.2681698501110077,0.251676470041275
1717009666647737900,29.20273779296875,-2.737898111343384,0.5943718552589417,-1.5644259452819824
1717009666687713300,29.24271337890625,-3.2760703563690186,0.3445279896259308,0.06108652427792549
1717009666727724300,29.282724365234376,-3.785531997680664,-0.5186246037483215,1.7446311712265015
1717009666767733200,29.322733154296873,-5.211902141571045,0.8356636762619019,1.1252137422561646
1717009666807738600,29.362738525390625,-4.84110689163208,1.7104226350784302,0.598647952079773
1717009666847719700,29.4027197265625,-3.0305025577545166,1.0653489828109741,1.423926830291748
1717009666887728000,29.44272802734375,-1.2767083644866943,0.17348572611808777,0.7086036801338196
1717009666927733800,29.482733642578125,-0.43127086758613586,0.3127630054950714,-0.27550023794174194
1717009666967712500,29.52271240234375,-0.20952677726745605,0.1973094791173935,0.5955936312675476
1717009667007724000,29.56272412109375,0.46547931432724,-1.0580185651779175,0.6059783101081848
1717009667047727400,29.602727294921873,2.2675318717956543,-1.4672982692718506,-0.8796459436416626
1717009667087738400,29.64273828125,3.9406917095184326,-3.1801645755767822,-0.09407325088977814
1717009667127718400,29.682718505859373,4.3701300621032715,-0.9724974632263184,-2.7030787467956543
1717009667167723500,29.7227236328125,4.973053932189941,-1.5222761631011963,-3.6975672245025635
1717009667207735000,29.762735107421875,4.345695495605469,-2.0091357231140137,-0.9871582388877869
1717009667247713500,29.802713623046873,3.3450980186462402,-1.5094480514526367,-0.6194173693656921
1717009667287717000,29.842717041015625,1.1386528015136719,-0.7177666425704956,-1.351233959197998
1717009667327729000,29.88272900390625,-0.7568620443344116,0.3738495409488678,-1.9162843227386475
1717009667367736800,29.92273681640625,-2.1264219284057617,0.3439171314239502,-0.9065240025520325
1717009667407712000,29.9627119140625,-2.8325822353363037,0.06719517707824707,0.36102136969566345
1717009667447725800,30.002725830078123,-3.132516860961914,1.0598511695861816,0.35124751925468445
1717009667487734300,30.042734375,-2.9859092235565186,3.2149837017059326,-0.2968805134296417
1717009667527709200,30.082709228515625,-2.13314151763916,1.3933836221694946,3.056769609451294
1717009667567721000,30.122720947265623,-3.6554176807403564,0.08491026610136032,4.933958530426025
1717009667607729400,30.1627294921875,-3.251635789871216,1.387274980545044,2.236377716064453
1717009667647732700,30.202732666015624,-2.1954495906829834,0.192422553896904,0.34758231043815613
1717009667687716600,30.242716552734375,-1.4489723443984985,1.4282029867172241,-0.8423831462860107
1717009667727722200,30.28272216796875,0.04642575979232788,0.07819075137376785,0.06475171446800232
1717009667767727600,30.3227275390625,0.1667662113904953,-0.43615779280662537,0.4251621961593628
1717009667807739400,30.362739501953126,0.5375614166259766,0.7348709106445312,-0.40622538328170776
1717009667847719700,30.4027197265625,2.1734585762023926,-0.8222246170043945,-0.7189884185791016
1717009667887725300,30.442725341796876,4.192978858947754,-1.1582005023956299,-2.362215995788574
1717009667927734800,30.48273486328125,5.041471004486084,-2.0390682220458984,-2.5473079681396484
1717009667967715000,30.522715087890624,3.8851029872894287,-1.2235630750656128,-1.8857409954071045
1717009668007720200,30.56272021484375,3.297450542449951,-1.4367550611495972,-1.3017538785934448
1717009668047729700,30.602729736328126,2.0586159229278564,-1.3213015794754028,-0.7415903806686401
1717009668087739000,30.64273876953125,1.376279354095459,-0.9993755221366882,-1.5265522003173828
1717009668127716400,30.68271630859375,0.5491678714752197,-0.6200281977653503,-0.8637634515762329
1717009668167724500,30.722724609375,-1.32863187789917,0.00427605677396059,0.8197811841964722
1717009668207733000,30.76273291015625,-2.456289052963257,0.7250970602035522,0.7464773058891296
1717009668247709000,30.802708984375,-2.727513313293457,2.495384454727173,-0.6609562039375305
1717009668287722000,30.842721923828126,-2.344500780105591,2.5021040439605713,-0.16859880089759827
1717009668327730400,30.88273046875,-2.915048837661743,1.1820242404937744,2.93154239654541
1717009668367736300,30.922736328125,-4.3035454750061035,1.5656476020812988,3.0555479526519775
1717009668407717000,30.962717041015626,-4.032321453094482,1.9999728202819824,1.80510675907135
1717009668447725800,31.002725830078123,-2.8319711685180664,0.6701191663742065,1.2577714920043945
1717009668487730000,31.04272998046875,-2.2656991481781006,1.0531316995620728,-0.44104471802711487
1717009668527713300,31.08271337890625,-0.969443142414093,0.3536909818649292,-0.14905111491680145
1717009668567718400,31.122718505859375,-0.29016098380088806,-0.8655960559844971,0.8252789378166199
1717009668607724800,31.162724853515623,-0.012828170321881771,-0.655458390712738,0.43127086758613586
1717009668647737900,31.20273779296875,1.1917980909347534,-0.9914342761039734,-0.31520646810531616
1717009668687716000,31.242716064453123,2.8014280796051025,-1.444696307182312,-1.2712105512619019
1717009668727719400,31.282719482421875,4.757418632507324,-2.0537290573120117,-1.9181169271469116
1717009668767733200,31.322733154296873,5.640118598937988,-2.403754711151123,-1.2779301404953003
1717009668807741400,31.362741455078126,5.958990573883057,-2.4416284561157227,-0.3500257730484009
1717009668847716600,31.402716552734375,3.9406917095184326,-1.0311405658721924,-1.0983357429504395
1717009668887725800,31.442725830078125,2.1288654804229736,-0.3072652220726013,-2.3799309730529785
1717009668927737300,31.4827373046875,0.7428121566772461,-0.1466076523065567,-2.3267858028411865
1717009668967710200,31.522710205078123,-1.5210545063018799,-0.6792821288108826,0.0806342139840126
1717009669007721500,31.562721435546877,-3.3689217567443848,0.16310101747512817,-0.8350527882575989
1717009669047729700,31.602729736328126,-4.209472179412842,1.654223084449768,-1.3139711618423462
1717009669087737300,31.6427373046875,-4.027434349060059,1.6627751588821411,-0.012828170321881771
1717009669127718400,31.682718505859373,-4.815450668334961,1.4941763877868652,2.2571470737457275
1717009669167726600,31.7227265625,-4.483139991760254,1.5625933408737183,2.500882387161255
1717009669207732200,31.762732177734375,-3.486818790435791,1.5528194904327393,2.4550673961639404
1717009669247711500,31.80271142578125,-1.7220290899276733,0.02076941914856434,1.9908097982406616
1717009669287722000,31.842721923828126,-0.4306600093841553,-0.3701843321323395,0.5516113042831421
1717009669327725600,31.8827255859375,0.40194934606552124,-0.6133087277412415,0.6334672570228577
1717009669367737600,31.922737548828124,1.5173892974853516,-1.7140878438949585,0.37690386176109314
1717009669407715600,31.962715576171874,2.82769513130188,-1.8875735998153687,-0.14416420459747314
1717009669447722800,32.00272265625,4.4122796058654785,-3.2589659690856934,-0.9334021210670471
1717009669487732000,32.04273193359375,6.674313545227051,-4.047593116760254,-2.905885934829712
1717009669527710200,32.08271020507812,5.257106304168701,-3.6939022541046143,-2.966972589492798
1717009669567715800,32.1227158203125,5.641951560974121,-2.7531697750091553,-4.507574558258057
1717009669607729400,32.1627294921875,5.289482116699219,-3.8588356971740723,-2.0555615425109863
1717009669648001800,32.203001708984374,3.059213161468506,-1.712866187095642,-2.866790533065796
1717009669687736300,32.242736328125,0.6927211880683899,-0.1508837193250656,-3.2064316272735596
1717009669728253200,32.28325317382812,0.6927211880683899,-0.1508837193250656,-3.2064316272735596
1717009669768262000,32.323261962890626,-4.91990852355957,0.2968805134296417,-2.6395487785339355
1717009669808241700,32.36324169921875,-5.811161041259766,1.9352210760116577,-2.0256290435791016
1717009669848250000,32.40325,-5.952881813049316,1.807550311088562,0.251676470041275
1717009669888258800,32.4432587890625,-5.97365140914917,2.065335512161255,2.4837779998779297
1717009669928236800,32.48323681640625,-4.868596076965332,1.891238808631897,2.3689353466033936
1717009669968245500,32.52324560546875,-2.1007654666900635,1.1679743528366089,2.0231857299804688
1717009670008253700,32.563253662109375,0.2480112910270691,-1.5436564683914185,1.1557570695877075
1717009670048264200,32.60326416015625,1.0183123350143433,-0.7269296646118164,-1.2406673431396484
1717009670088238300,32.64323828125,2.4605650901794434,-2.4947736263275146,-0.48685958981513977
1717009670128246800,32.683246826171874,3.542407512664795,-3.4709362983703613,-0.7525860071182251
1717009670168257500,32.72325756835937,4.548502445220947,-4.190535545349121,-2.1337523460388184
1717009670208266000,32.763265869140625,5.418985366821289,-4.602869510650635,-4.318817138671875
1717009670248242200,32.8032421875,6.23571252822876,-5.4281487464904785,-5.714033603668213
1717009670288250400,32.84325048828125,5.076290130615234,-4.101349353790283,-5.389664173126221
1717009670328258800,32.8832587890625,3.922976493835449,-3.2870659828186035,-4.558276653289795
1717009670368239000,32.923239013671875,2.3322834968566895,-2.7091872692108154,-3.17161226272583
1717009670408245500,32.96324560546875,0.23945917189121246,-0.8026769161224365,-3.7812559604644775
1717009670448256800,33.0032568359375,-1.4019356966018677,0.25595253705978394,-2.406809091567993
1717009670488263400,33.043263427734374,-2.9883527755737305,0.6682865619659424,-0.9358455538749695
1717009670528241000,33.08324096679687,-4.223522186279297,1.4966198205947876,-1.1563678979873657
1717009670568251600,33.12325170898438,-5.4312028884887695,2.1923954486846924,-0.4648684561252594
1717009670608260000,33.16326000976562,-6.039013862609863,2.4086415767669678,0.5900958180427551
1717009670648238000,33.20323803710937,-5.379279136657715,2.420858860015869,2.349998712539673
1717009670688246800,33.24324682617188,-4.614476203918457,0.5076290369033813,3.4104607105255127
1717009670728255000,33.2832548828125,-3.6193766593933105,1.0879509449005127,2.216830015182495
1717009670768261600,33.32326171875,-1.7122552394866943,0.2626720666885376,-0.09529497474431992
1717009670808239600,33.363239501953124,0.08124507963657379,-0.15515977144241333,-0.15393804013729095
1717009670848248000,33.403248046875,1.4856243133544922,-0.9859365224838257,0.7171558141708374
1717009670888257500,33.44325756835938,3.4342844486236572,-1.5528194904327393,0.46731191873550415
1717009670928236800,33.48323681640625,4.742146968841553,-2.3212878704071045,-0.7959573864936829
1717009670968247600,33.52324755859375,6.1850104331970215,-3.2809572219848633,-2.6933047771453857
1717009671008251600,33.563251708984374,7.396356582641602,-4.302934646606445,-3.9663479328155518
1717009671048260400,33.60326025390625,6.821532249450684,-2.73301100730896,-3.9211440086364746
1717009671088238300,33.64323828125,5.48190450668335,-2.941926956176758,-2.456900119781494
1717009671128248800,33.683248779296875,3.2809572219848633,-1.9517145156860352,-1.9181169271469116
1717009671178883000,33.73388305664062,2.116037130355835,-1.518610954284668,-2.104430675506592
1717009671218893800,33.77389379882813,2.116037130355835,-1.518610954284668,-2.104430675506592
1717009671258867000,33.81386694335937,-2.4782803058624268,0.4337143301963806,0.3683517575263977
1717009671298879200,33.853879150390625,-3.587000608444214,1.8961256742477417,0.4239404797554016
1717009671338887200,33.89388720703125,-4.133725166320801,2.8551840782165527,0.6621779203414917
1717009671378864400,33.933864501953124,-3.662748098373413,3.8179078102111816,1.320690631866455
1717009671418875600,33.973875732421874,-5.440365791320801,0.7018841505050659,3.073262929916382
1717009671458884400,34.01388427734375,-5.503284931182861,1.9908097982406616,1.2498302459716797
1717009671498890000,34.05388989257813,-4.306600093841553,1.415374755859375,1.8319848775863647
1717009671538868700,34.09386865234375,-2.693915843963623,1.1429288387298584,0.9853256344795227
1717009671578878000,34.1338779296875,-1.674992561340332,1.920560359954834,0.5595525503158569
1717009671618882600,34.173882568359375,-0.19425514340400696,0.7141014933586121,1.1911872625350952
1717009671658864600,34.21386474609375,0.6047565937042236,0.6493497490882874,0.636521577835083
1717009671698872600,34.25387255859375,1.7886134386062622,0.7898487448692322,-0.5540547966957092
1717009671738880300,34.29388037109375,3.29134202003479,0.19486601650714874,-1.1160508394241333
1717009671778889500,34.333889404296876,4.862487316131592,-0.2834414839744568,-1.6139060258865356
1717009671818869800,34.37386987304688,5.087285995483398,-0.039095375686883926,-2.4697282314300537
1717009671858875400,34.41387548828125,5.338351249694824,-0.7745771408081055,-2.861903667449951
1717009671898886700,34.45388671875,4.51612663269043,-1.9834794998168945,-0.22663100063800812
1717009671938893300,34.49389331054687,2.8240299224853516,-0.930347740650177,-1.274264931678772
1717009671978871000,34.53387109375,1.1533136367797852,0.2480112910270691,-2.7904324531555176
1717009672018879700,34.573879638671876,-0.7489207983016968,-0.3219259977340698,-0.3433062732219696
1717009672058888400,34.61388842773437,-1.7825047969818115,0.07208210229873657,0.836885392665863
1717009672098865700,34.65386572265625,-2.813645362854004,1.4929546117782593,0.9908234477043152
1717009672138876400,34.69387646484375,-3.3964107036590576,3.00118088722229,1.9901989698410034
1717009672178885000,34.73388500976562,-3.7928624153137207,2.1600193977355957,3.6529741287231445
1717009672218890800,34.77389086914062,-5.1349334716796875,2.1123719215393066,3.5411858558654785
1717009672258872000,34.8138720703125,-5.009095191955566,2.298074960708618,2.4636194705963135
1717009672298878500,34.85387841796875,-3.4458909034729004,0.38240164518356323,1.4147639274597168
1717009672338886400,34.893886474609374,-2.4501805305480957,1.7959438562393188,-0.384845107793808
1717009672378865200,34.933865234375,-0.8381071090698242,0.18325957655906677,0.8796459436416626
1717009672418874400,34.973874267578125,-0.08552113175392151,-0.16004669666290283,1.5106697082519531
1717009672458881800,35.0138818359375,2.13314151763916,-0.2638937830924988,0.3634648323059082
1717009672498892800,35.053892822265624,4.118453502655029,-1.1691961288452148,-0.9590584635734558
1717009672538868700,35.09386865234375,6.493497371673584,-1.880243182182312,-1.8216001987457275
1717009672578876700,35.133876708984374,5.455637454986572,-1.207069754600525,-2.10809588432312
1717009672618888000,35.173887939453124,5.089729309082031,-1.4269812107086182,-2.032959461212158
1717009672658864000,35.21386401367187,3.9345829486846924,-2.1978931427001953,-0.5803219676017761
1717009672698870300,35.253870361328126,1.4972307682037354,-0.09957103431224823,-2.062891960144043
1717009672738881500,35.293881591796875,-1.3897184133529663,0.5522221922874451,-0.413555771112442
1717009672778889500,35.333889404296876,-4.302323818206787,0.4899139404296875,0.3830125033855438
1717009672818866700,35.37386669921875,-6.106208801269531,3.5051448345184326,-0.303600013256073
1717009672858878200,35.413878173828124,-5.341405868530273,3.7061195373535156,3.09891939163208
1717009672898886700,35.45388671875,-5.586973667144775,0.7831292152404785,4.885700225830078
1717009672938892500,35.493892578125,-5.1770830154418945,2.070833206176758,0.7837401032447815
1717009672978875600,35.533875732421876,-3.4733798503875732,1.7037031650543213,-0.48747047781944275
1717009673018880500,35.57388061523437,-1.6303993463516235,0.45814892649650574,0.31642818450927734
1717009673058886000,35.61388598632813,0.5174028873443604,0.20891591906547546,-0.9291260242462158
1717009673098868200,35.6538681640625,2.007303237915039,-0.04153883829712868,-1.158811330795288
1717009673138876400,35.69387646484375,3.769038677215576,-0.036651913076639175,0.6352998614311218
1717009673178880300,35.73388037109375,3.99200439453125,-0.1771509200334549,1.4691308736801147
1717009673218893800,35.77389379882813,3.7250561714172363,0.4862487316131592,-0.6053674817085266
1717009673258872300,35.81387231445313,3.894876718521118,-0.20341812074184418,-2.8350255489349365
1717009673298877700,35.85387768554688,4.1025710105896,-1.309084177017212,-2.677422285079956
1717009673338889200,35.89388916015625,3.4410040378570557,-1.1001683473587036,-2.556471109390259
1717009673378867200,35.9338671875,3.1978795528411865,-1.9071213006973267,-0.9847147464752197
1717009673418870800,35.973870849609376,2.2266037464141846,-1.3854423761367798,-1.0042624473571777
1717009673458882800,36.0138828125,0.8961393237113953,-0.9138544201850891,-0.413555771112442
1717009673498890500,36.05389038085937,-0.3530801236629486,-0.06475171446800232,0.6249151229858398
1717009673538868500,36.09386840820312,-1.9688186645507812,1.3848315477371216,1.8588629961013794
1717009673578879500,36.13387939453125,-2.8435776233673096,3.2400293350219727,2.4685065746307373
1717009673618888000,36.173887939453124,-2.905885934829712,4.288273811340332,4.006665229797363
1717009673658863000,36.21386303710938,-3.219259738922119,2.630385637283325,6.056728839874268
1717009673698874400,36.25387426757813,-4.743979454040527,1.742187738418579,4.172209739685059
1717009673738883000,36.293883056640624,-3.955963373184204,1.086118459701538,1.9443840980529785
1717009673778888700,36.333888671875,-3.2009339332580566,1.1191051006317139,0.5491678714752197
1717009673818869500,36.37386938476563,-2.5833492279052734,1.654223084449768,0.18570303916931152
1717009673858877000,36.413876953125,-1.2705997228622437,1.5546520948410034,-0.313373863697052
1717009673898882000,36.453882080078124,-0.1869247704744339,1.4672982692718506,-0.2021963894367218
1717009673938893000,36.49389306640625,0.8118399381637573,1.395827054977417,-0.059864792972803116
1717009673978873300,36.533873291015624,2.414750337600708,1.3170254230499268,-0.6786713004112244
1717009674018879000,36.57387890625,4.598593711853027,1.0781772136688232,-2.180788993835449
1717009674058888200,36.61388818359375,6.757391452789307,-0.5943718552589417,-2.2901337146759033
1717009674098868500,36.653868408203124,5.513058662414551,-0.07696902006864548,-0.8857545852661133
1717009674138873300,36.69387329101563,4.034764766693115,0.4404338300228119,-1.7623462677001953
1717009674178885000,36.73388500976562,3.1398472785949707,-0.9633345007896423,-0.4245513379573822
1717009674218892300,36.77389233398438,1.5338826179504395,-0.6291912198066711,-0.06352998316287994
1717009674258869800,36.813869873046876,0.07452555745840073,0.3738495409488678,0.33475416898727417
1717009674298879000,36.85387890625,-1.6365079879760742,0.6713408827781677,2.298074960708618
1717009674338889700,36.8938896484375,-3.123353958129883,1.9926424026489258,2.3023509979248047
1717009674378862000,36.93386206054687,-3.9962804317474365,3.760486364364624,2.7067439556121826
1717009674418875600,36.973875732421874,-3.975511074066162,5.230228424072266,4.543615818023682
1717009674458882000,37.013882080078126,-4.387845039367676,3.243694543838501,7.404908657073975
1717009674498889500,37.053889404296875,-4.604701995849609,2.693915843963623,4.910134792327881
1717009674538871000,37.09387109375,-3.9516873359680176,2.7763824462890625,1.356731653213501
1717009674578877400,37.13387744140625,-2.9236011505126953,2.0482311248779297,0.9144652485847473
1717009674618883300,37.17388330078125,-1.4049900770187378,1.7763961553573608,-0.7250970602035522
1717009674658863900,37.21386376953125,-0.012217304669320583,1.6841554641723633,-1.5369369983673096
1717009674698873000,37.253873046875,2.3903157711029053,1.0183123350143433,-0.49785518646240234
1717009674738878000,37.2938779296875,3.7751471996307373,0.8148942589759827,-0.8338310718536377
1717009674778889500,37.333889404296876,5.178304672241211,0.6401867866516113,-2.018298864364624
1717009674818867700,37.37386767578125,6.951035499572754,-0.4856378734111786,-2.579684019088745
1717009674858873000,37.413873046875,6.189286708831787,-0.675616979598999,-1.9993619918823242
1717009674898884600,37.453884521484376,4.710381984710693,-0.6664539575576782,-1.4129313230514526
1717009674938895400,37.493895263671874,2.8680124282836914,-0.6407976150512695,-1.786780834197998
1717009674978868200,37.5338681640625,1.1246029138565063,-0.6768386960029602,-1.9431623220443726
1717009675018879700,37.573879638671876,0.21135938167572021,-0.8210029006004333,-1.0946705341339111
1717009675058888200,37.61388818359375,-0.8943067193031311,-0.27977627515792847,0.06963863968849182
1717009675098865700,37.65386572265625,-2.643824815750122,0.6475171446800232,1.1166616678237915
1717009675138876200,37.693876220703125,-3.356093645095825,1.38849675655365,2.22477126121521
1717009675178885000,37.73388500976562,-4.513683319091797,1.9914207458496094,2.5033257007598877
1717009675218890800,37.77389086914062,-4.225965976715088,2.3652701377868652,2.4324653148651123
1717009675258870000,37.8138701171875,-5.115996360778809,0.6939429044723511,4.692056179046631
1717009675298878700,37.85387866210937,-4.662123680114746,1.1093312501907349,3.179553508758545
1717009675338883600,37.89388354492188,-4.206418037414551,1.8613064289093018,0.4899139404296875
1717009675378867200,37.9338671875,-2.9907963275909424,2.5002715587615967,0.4129449129104614
1717009675418873900,37.97387377929687,-1.0488556623458862,0.53328537940979,1.4776830673217773
1717009675458879200,38.01387915039062,0.012217304669320583,0.7232644557952881,0.6963863968849182
1717009675498893600,38.0538935546875,0.8429940342903137,0.00427605677396059,0.5595525503158569
1717009675538871600,38.09387158203125,2.5277602672576904,-1.0225883722305298,-1.1001683473587036
1717009675578874400,38.13387426757812,4.354247570037842,-1.1985175609588623,-3.3316590785980225
1717009675618886000,38.17388598632812,6.023131370544434,-2.4605650901794434,-2.585181713104248
1717009675658866200,38.2138662109375,5.340183734893799,-1.6322319507598877,-1.5485434532165527
1717009675698871600,38.25387158203125,4.426940441131592,-0.18387043476104736,-3.0750956535339355
1717009675738881000,38.29388110351562,3.0445523262023926,-0.53328537940979,-2.637716054916382
1717009675778890200,38.33389013671875,1.5931365489959717,-0.8546004891395569,-2.1765129566192627
1717009675818865000,38.373864990234374,-1.2864822149276733,-0.3225368559360504,-0.6841690540313721
1717009675858876000,38.4138759765625,-3.8570032119750977,-0.23579397797584534,-1.4141530990600586
1717009675898884600,38.453884521484376,-3.7568211555480957,0.6359107494354248,0.21624629199504852
1717009675938892500,38.493892578125,-5.767179012298584,0.7586946487426758,0.2125810980796814
1717009675978873600,38.53387353515625,-4.516737461090088,3.19665789604187,-1.053742527961731
1717009676018881800,38.5738818359375,-3.877161741256714,-0.3121521472930908,3.6358699798583984
1717009676058887700,38.6138876953125,-4.624860763549805,2.4996604919433594,3.4019086360931396
1717009676098868500,38.653868408203124,-3.608991861343384,1.9175059795379639,1.822821855545044
1717009676138876400,38.69387646484375,-1.9382754564285278,0.911410927772522,0.14477506279945374
1717009676178880300,38.73388037109375,-0.11484266817569733,0.5900958180427551,-0.01771509274840355
1717009676218892000,38.77389208984375,0.9340129494667053,0.1667662113904953,1.10139000415802
1717009676258895000,38.81389501953125,2.5638015270233154,0.05009094998240471,0.13744467496871948
1717009676298879200,38.853879150390625,4.96389102935791,-0.8704829812049866,-1.86497163772583
1717009676339415600,38.89441552734375,4.96389102935791,-0.8704829812049866,-1.86497163772583
1717009676379424000,38.93442407226563,6.55458402633667,-2.3707680702209473,-0.9065240025520325
1717009676419402000,38.97440209960938,4.397618770599365,0.07024950534105301,-2.4556782245635986
1717009676459410700,39.01441064453125,2.2846360206604004,-0.9388998746871948,-2.4978280067443848
1717009676499419100,39.05441918945313,0.5607742667198181,-0.5876523852348328,-3.081815242767334
1717009676539397000,39.09439721679688,-0.46853363513946533,-0.8515461683273315,-2.400700330734253
1717009676579405800,39.13440576171875,-2.1447479724884033,-0.15454891324043274,-1.0848966836929321
1717009676619414300,39.17441430664063,-3.5857789516448975,1.444696307182312,-0.3597996234893799
1717009676659422700,39.214422607421874,-3.8655552864074707,3.118467092514038,-0.23273965716362
1717009676699401000,39.25440087890625,-3.3115005493164062,3.00423526763916,-0.34086281061172485
1717009676739409200,39.2944091796875,-4.886311054229736,3.5020904541015625,2.0561723709106445
1717009676779417900,39.33441796875,-4.527122497558594,2.386650562286377,4.117231845855713
1717009676819395800,39.374395751953124,-3.7470474243164062,0.7257078886032104,3.567453145980835
1717009676859404500,39.41440454101563,-2.844188690185547,1.2932016849517822,0.06963863968849182
1717009676899413000,39.4544130859375,-1.3585642576217651,0.6285803318023682,-0.19120082259178162
1717009676939421400,39.49442138671875,0.039706241339445114,-1.2919800281524658,1.957212209701538
1717009676979399700,39.53439965820313,1.8582520484924316,-2.2186625003814697,1.5363260507583618
1717009677019408100,39.574408203125,3.8930442333221436,-3.3145549297332764,-0.7305948138237
1717009677059416800,39.61441674804688,6.5173211097717285,-5.166698455810547,-3.0555479526519775
1717009677099425500,39.654425537109375,6.49777364730835,-5.062240123748779,-2.6810874938964844
1717009677139402500,39.69440258789062,5.723807334899902,-3.115412712097168,-3.8820486068725586
1717009677179411500,39.734411376953126,5.142263412475586,-4.181983470916748,-3.0549371242523193
1717009677219420000,39.774419921875,3.754377841949463,-3.067765235900879,-2.7452285289764404
1717009677259398400,39.8143984375,1.8527542352676392,-1.0696250200271606,-3.5442402362823486
1717009677299407000,39.85440698242188,0.019547687843441963,-0.35185837745666504,-2.5002715587615967
1717009677339415600,39.89441552734375,-2.5784621238708496,0.01038470957428217,-2.543642997741699
1717009677379424000,39.93442407226563,-4.390899181365967,0.588874101638794,-3.2565226554870605
1717009677419402000,39.97440209960938,-5.403714179992676,1.5436564683914185,-2.937040090560913
1717009677459410700,40.01441064453125,-5.414709568023682,1.5277739763259888,-0.13500121235847473
1717009677499419100,40.05441918945313,-5.463578701019287,0.8191702961921692,2.8270843029022217
1717009677539397000,40.09439721679688,-5.037805557250977,1.5943583250045776,2.579684019088745
1717009677579405800,40.13440576171875,-3.2528574466705322,0.949895441532135,2.7287349700927734
1717009677619414300,40.17441430664063,-1.871691107749939,-0.7122688889503479,1.834428310394287
1717009677659422700,40.214422607421874,-0.5955936312675476,-1.0934487581253052,0.04703662544488907
1717009677699401000,40.25440087890625,0.3433062732219696,-2.020742177963257,-0.4349360466003418
1717009677739409400,40.29440942382813,1.9834794998168945,-3.6890151500701904,-0.09224065393209457
1717009677779417900,40.33441796875,3.798970937728882,-4.851491928100586,-1.0152580738067627
1717009677819396000,40.37439599609375,5.674327373504639,-5.638896942138672,-2.3609941005706787
1717009677859404500,40.41440454101563,5.228395462036133,-4.924184799194336,-3.141069173812866
1717009677899413200,40.454413330078125,5.150204658508301,-3.8087449073791504,-3.869220495223999
1717009677939421400,40.49442138671875,4.993212699890137,-4.039041042327881,-2.6749789714813232
1717009677979399700,40.53439965820313,3.9101483821868896,-2.4520130157470703,-2.8240299224853516
1717009678019408100,40.574408203125,2.4129176139831543,-1.513113260269165,-3.787975311279297
1717009678059416600,40.61441650390625,0.5925393104553223,-0.2681698501110077,-4.0072760581970215
1717009678099425300,40.65442529296875,-0.949895441532135,-0.10873401165008545,-2.6542093753814697
1717009678139576600,40.69457666015625,-1.3231340646743774,-0.22418753802776337,-2.191784381866455
1717009678179584800,40.734584716796874,-1.3231340646743774,-0.22418753802776337,-2.191784381866455
1717009678219560200,40.77456030273437,-4.4849724769592285,1.8167132139205933,-0.8643743395805359
1717009678259576300,40.814576416015626,-3.743993043899536,1.3231340646743774,0.8063421249389648
1717009678299582700,40.85458276367188,-4.294382572174072,0.20830504596233368,3.36098051071167
1717009678339558000,40.894557861328124,-4.775744438171387,1.8264870643615723,1.748907208442688
1717009678379569200,40.934569091796874,-3.3567044734954834,1.4196507930755615,1.881464958190918
1717009678419579600,40.97457958984375,-1.4611896276474,0.3023782968521118,1.1722503900527954
1717009678459581200,41.014581298828126,-0.3903428912162781,0.49296826124191284,0.13500121235847473
1717009678499561700,41.05456176757812,1.0714576244354248,0.7147123217582703,1.5082262754440308
1717009678539573500,41.09457348632812,3.3402111530303955,-0.6200281977653503,-0.3927863538265228
1717009678579578400,41.13457836914063,5.060407638549805,-1.3292428255081177,-2.725069761276245
1717009678619587600,41.174587646484376,6.362161636352539,-3.1593949794769287,-2.8160886764526367
1717009678659565800,41.21456591796875,5.5313849449157715,-2.780658483505249,-1.2125675678253174
1717009678699573500,41.25457348632813,4.134946823120117,-1.0677924156188965,-2.0189096927642822
1717009678739585300,41.29458520507813,2.855794906616211,-1.318858027458191,-2.758056640625
1717009678779563000,41.33456298828125,1.626123309135437,-1.2809844017028809,-2.4825563430786133
1717009678819566300,41.37456640625,0.17287486791610718,-0.8906415104866028,-1.968207836151123
1717009678859578400,41.41457836914063,-1.511891484260559,-0.2840523421764374,-1.700037956237793
1717009678899588900,41.4545888671875,-2.689028739929199,0.7531968355178833,-0.9627236127853394
1717009678939564500,41.494564453125,-3.286454916000366,1.035416603088379,0.7757988572120667
1717009678979575300,41.5345751953125,-3.2473597526550293,2.643213987350464,1.2229522466659546
1717009679019583700,41.574583740234374,-2.828306198120117,2.2675318717956543,3.000570058822632
1717009679059556600,41.614556640625,-4.777576923370361,3.2962288856506348,5.161200523376465
1717009679099568400,41.654568359375,-5.557651996612549,3.8142426013946533,3.0390546321868896
1717009679139575800,41.69457592773438,-4.455040454864502,3.1667253971099854,1.4306464195251465
1717009679179584300,41.73458422851562,-2.729956865310669,1.8857409954071045,0.9529497623443604
1717009679219563000,41.77456298828125,-1.3836097717285156,1.4385876655578613,-0.2064724564552307
1717009679259572200,41.814572265625,-0.5687155723571777,1.518610954284668,0.4715879559516907
1717009679299580200,41.854580078125,1.188132882118225,0.27977627515792847,0.6988298296928406
1717009679339558400,41.894558349609376,3.2180380821228027,-0.6493497490882874,-3.391523838043213
1717009679379569200,41.934569091796874,5.108665943145752,-2.1306979656219482,-4.150218486785889
1717009679419572700,41.97457275390625,7.389026165008545,-4.547891616821289,-1.053742527961731
1717009679459586000,42.0145859375,5.811771869659424,-2.0580050945281982,-1.264491081237793
1717009679499564300,42.054564208984374,4.325536727905273,-2.073887586593628,-0.7354817390441895
1717009679539567900,42.09456787109375,2.7482826709747314,-1.652390480041504,-0.21502456068992615
1717009679579580200,42.134580078125,0.8619308471679688,-0.08002334833145142,-0.8448266386985779
1717009679619588400,42.17458837890625,-1.1044443845748901,0.06963863968849182,0.26633724570274353
1717009679659563300,42.214563232421874,-3.6022722721099854,0.8827002644538879,0.6218608021736145
1717009679699576600,42.25457666015625,-4.222911357879639,2.2650883197784424,0.24495697021484375
1717009679739585300,42.29458520507813,-4.08668851852417,1.9614882469177246,2.2009475231170654
1717009679779560000,42.33455981445312,-5.623014450073242,1.4343116283416748,4.361577987670898
1717009679819571700,42.37457177734375,-6.119647979736328,1.615127682685852,2.325563907623291
1717009679859578000,42.414578125,-5.462357044219971,2.0451767444610596,1.0855075120925903
1717009679899583700,42.454583740234376,-4.402505874633789,2.5411994457244873,-0.45204028487205505
1717009679939564500,42.494564453125,-2.1868975162506104,2.188730239868164,0.0555887371301651
1717009679979573800,42.53457373046875,-0.12828169763088226,0.7660250067710876,0.08796459436416626
1717009680019578400,42.574578369140625,0.9010262489318848,0.6151412725448608,-0.7782423496246338
1717009680059559700,42.6145595703125,1.605353832244873,0.39095374941825867,-1.0458012819290161
1717009680099570400,42.6545703125,2.7097983360290527,-0.6908885836601257,-0.8662069439888
1717009680139573000,42.69457299804687,4.125173091888428,-0.8943067193031311,-2.0500638484954834
1717009680179584800,42.734584716796874,4.8111748695373535,-1.2412781715393066,-2.828306198120117
1717009680219565000,42.77456494140625,4.971832275390625,-1.9895881414413452,-2.032959461212158
1717009680259571200,42.8145712890625,4.803844451904297,-2.5118777751922607,-1.855197787284851
1717009680299582700,42.85458276367188,2.9657506942749023,-1.920560359954834,-1.7568484544754028
1717009680339559400,42.89455932617187,1.4220943450927734,-0.8283332586288452,-2.4379632472991943
1717009680379564500,42.934564453125,-0.08246681094169617,0.25473082065582275,-2.6975808143615723
1717009680419578000,42.974578125,-2.1642956733703613,1.1527026891708374,-1.4764612913131714
1717009680459584300,43.01458422851562,-3.7806448936462402,0.8240572214126587,0.8814785480499268
1717009680499561500,43.0545615234375,-4.714657783508301,2.2382102012634277,0.4355469346046448
1717009680539575000,43.09457495117187,-3.536909818649292,2.5503623485565186,1.0580185651779175
1717009680579581200,43.134581298828124,-4.403116703033447,0.7941248416900635,4.402505874633789
1717009680619587000,43.174587158203124,-4.73970365524292,1.4703526496887207,2.76111102104187
1717009680659565800,43.21456591796875,-4.193589687347412,2.490497589111328,1.0317513942718506
1717009680699574500,43.25457446289062,-2.7898216247558594,1.6890424489974976,1.359786033630371
1717009680739580000,43.29457983398437,-1.1136072874069214,-0.11362093687057495,2.0702223777770996
1717009680779561000,43.33456103515625,0.24373523890972137,-1.4624114036560059,1.5436564683914185
1717009680819571700,43.37457177734375,1.2516628503799438,-2.216830015182495,-0.06352998316287994
1717009680859576800,43.41457690429687,3.336545944213867,-3.2180380821228027,-2.0891592502593994
1717009680899588600,43.454588623046874,4.700608253479004,-3.7030651569366455,-3.059213161468506
1717009680939564500,43.494564453125,7.76654052734375,-6.179512977600098,-3.746436595916748
1717009680979572200,43.534572265625,5.163643836975098,-4.452596664428711,-4.43366003036499
1717009681019583700,43.574583740234374,3.48071026802063,-3.2235360145568848,-5.291314601898193
1717009681059561700,43.614561767578124,2.5112669467926025,-2.976135492324829,-3.4746015071868896
1717009681099567400,43.6545673828125,2.1459696292877197,-2.8912250995635986,-2.573575258255005
1717009681139576600,43.69457666015625,0.7330383062362671,-1.5039502382278442,-1.9443840980529785
1717009681179584800,43.734584716796874,-1.1105530261993408,0.06108652427792549,-2.13314151763916
1717009681219560400,43.774560546875,-2.9712486267089844,1.1746938228607178,-1.6615535020828247
1717009681259572000,43.81457202148437,-4.161824703216553,1.2455542087554932,-0.8717046976089478
1717009681299584800,43.85458471679687,-4.525289535522461,2.9822440147399902,-0.5076290369033813
1717009681339560000,43.894559814453125,-4.8814239501953125,2.461786985397339,3.763540744781494
1717009681379569000,43.93456884765625,-4.166711807250977,1.5192219018936157,5.815437316894531
1717009681419575300,43.9745751953125,-3.4037411212921143,1.9425514936447144,4.72382116317749
1717009681459583000,44.0145830078125,-2.986520290374756,0.6035348773002625,3.81851863861084
1717009681499564000,44.05456396484375,-1.6823228597640991,0.8307767510414124,1.1184942722320557
1717009681539570700,44.09457080078125,-0.4495968222618103,-0.16432274878025055,-0.042760565876960754
1717009681579576300,44.134576416015626,0.39706242084503174,-1.8765780925750732,-0.08246681094169617
1717009681619588400,44.17458837890625,1.5454890727996826,-2.5747969150543213,-1.2504411935806274
1717009681659567600,44.21456762695313,3.5491271018981934,-3.8924334049224854,-3.3377676010131836
1717009681699571500,44.254571533203126,7.536855220794678,-4.7525315284729,-4.717101573944092
1717009681739585300,44.29458520507813,6.183177947998047,-5.158757209777832,-2.149634838104248
1717009681779563000,44.33456298828125,5.403102874755859,-3.0921998023986816,-2.5662448406219482
1717009681819568600,44.37456860351563,3.1887166500091553,-1.730581283569336,-3.285844087600708
1717009681859580700,44.41458056640625,1.9346102476119995,-1.4966198205947876,-3.332880735397339
1717009681899589000,44.454589111328126,0.5803219676017761,-1.3237450122833252,-1.451415777206421
1717009681939563800,44.49456372070313,-2.252260208129883,-0.3952298164367676,-0.06414084881544113
1717009681979575300,44.5345751953125,-2.9376509189605713,-1.4080443382263184,-2.090991735458374
1717009682019583700,44.574583740234374,-3.2308661937713623,-0.6230825781822205,-2.9626965522766113
1717009682059559000,44.61455883789063,-3.263242244720459,0.25595253705978394,-1.0464121103286743
1717009682099570400,44.6545703125,-4.330423831939697,2.174069404602051,0.6640105247497559
1717009682139578400,44.69457836914062,-4.803844451904297,1.6206254959106445,3.343876361846924
1717009682179584300,44.73458422851562,-4.659679889678955,1.86497163772583,2.4911084175109863
1717009682219945700,44.77494580078125,-3.4739906787872314,1.415374755859375,1.1074986457824707
1717009682259954700,44.81495458984375,-2.043344259262085,0.7684684991836548,0.021991148591041565
1717009682299960300,44.85496020507812,-1.171028733253479,0.0555887371301651,0.3378084897994995
1717009682339939000,44.89493896484375,-0.5082398653030396,-0.0861319974064827,0.8087855577468872
1717009682379948000,44.93494799804687,1.2846496105194092,-0.1417207419872284,0.8558222055435181
1717009682419955200,44.974955078125,3.8643336296081543,-1.6206254959106445,0.4288274049758911
1717009682459964700,45.01496459960938,6.083607196807861,-2.5216517448425293,-0.8930850028991699
1717009682499944700,45.05494482421875,6.211277961730957,-1.6194037199020386,-3.124575614929199
1717009682539950300,45.09495043945312,6.422636985778809,-2.962085485458374,-1.7568484544754028
1717009682579962000,45.13496215820312,4.848437309265137,-1.3084733486175537,-1.5070046186447144
1717009682619968300,45.17496826171875,2.758056640625,-0.23273965716362,-1.7733417749404907
1717009682659944000,45.21494384765625,1.0659598112106323,0.025656340643763542,-2.356718063354492
1717009682699955200,45.254955078125,-0.759305477142334,0.685390830039978,-1.7256942987442017
1717009682739963400,45.29496337890625,-2.4251351356506348,-0.5974262356758118,0.2681698501110077
1717009682779940600,45.33494067382812,-4.580267429351807,-1.0024298429489136,2.409252643585205
1717009682819952000,45.3749521484375,-7.054882526397705,0.31031954288482666,-0.2932153046131134
1717009682859961300,45.41496142578125,-6.378654956817627,2.440406560897827,-0.24984388053417206
1717009682899966200,45.45496630859375,-3.475212335586548,0.5070181488990784,3.286454916000366
1717009682939947300,45.494947265625,-4.0549235343933105,0.7782423496246338,4.709160327911377
1717009682979956500,45.53495654296875,-3.579059362411499,2.7476718425750732,2.031737804412842
1717009683019959300,45.574959228515624,-1.874745488166809,1.368949055671692,-0.33658674359321594
1717009683059942400,45.6149423828125,-0.07513642311096191,1.2272282838821411,-0.5222898125648499
1717009683099948500,45.654948486328124,1.0787880420684814,0.13866640627384186,-0.19364428520202637
1717009683139954200,45.6949541015625,1.8949040174484253,0.2993239760398865,-1.1789699792861938
1717009683179965400,45.73496533203125,3.149010419845581,0.46181413531303406,-1.8087719678878784
1717009683219945700,45.77494580078125,5.451361656188965,-1.1203268766403198,-2.582738161087036
1717009683259952400,45.81495239257813,7.74393892288208,-2.596788167953491,-2.5442538261413574
1717009683299939300,45.854939208984376,7.2399749755859375,-2.805093288421631,-1.0506882667541504
1717009683340498000,45.895497802734376,5.200295925140381,-0.14233160018920898,-1.8112154006958008
1717009683380506400,45.93550634765625,3.2846224308013916,-0.7898487448692322,-0.8772025108337402
1717009683420515000,45.97551513671875,1.5668693780899048,-0.07208210229873657,-1.5735888481140137
1717009683460493000,46.0154931640625,-0.3481931984424591,0.17470745742321014,-1.1172724962234497
1717009683500501500,46.05550146484375,-2.613281488418579,-0.12034045159816742,0.45875978469848633
1717009683540510200,46.09551025390625,-4.1832051277160645,1.2095131874084473,0.0012217304902151227
1717009683580518700,46.1355185546875,-4.580878257751465,2.0219640731811523,0.5595525503158569
1717009683620497000,46.17549682617187,-3.8460075855255127,1.8509217500686646,1.9675970077514648
1717009683660505000,46.215505126953126,-5.966320991516113,1.9156733751296997,2.7812695503234863
1717009683700513800,46.255513671875,-6.822143077850342,3.419623613357544,1.5271631479263306
1717009683740491800,46.29549169921875,-5.044525146484375,2.8851165771484375,2.7324001789093018
1717009683780500200,46.335500244140626,-2.0946569442749023,0.3988949954509735,2.7812695503234863
1717009683820509000,46.37550903320312,-0.6572909951210022,1.2528846263885498,-0.11362093687057495
1717009683860517400,46.415517333984376,0.12828169763088226,1.4648548364639282,-0.49724429845809937
1717009683900495600,46.45549560546875,2.1233675479888916,-0.7562511563301086,-0.04398229718208313
1717009683940504000,46.49550415039062,4.028045654296875,-1.2522737979888916,-2.306016206741333
1717009683980512500,46.535512451171876,5.893628120422363,-2.0647244453430176,-3.48071026802063
1717009684020490500,46.575490478515626,7.313278675079346,-3.5411858558654785,-2.7036895751953125
1717009684060499200,46.61549926757812,6.0756659507751465,-2.345111608505249,-2.84968638420105
1717009684100507600,46.655507568359376,5.158145904541016,-2.406198263168335,-2.0390682220458984
1717009684140515600,46.695515625,3.0854804515838623,-1.566258430480957,-2.004859685897827
1717009684180493800,46.73549389648438,1.1044443845748901,-0.8546004891395569,-2.241264581680298
1717009684220502500,46.77550244140625,-0.32620203495025635,0.2174680233001709,-2.065946340560913
1717009684260511200,46.81551123046875,-1.5699236392974854,0.17959438264369965,-0.47219884395599365
1717009684300489500,46.85548950195312,-3.1557297706604004,0.7024950385093689,-0.25473082065582275
1717009684340498000,46.895497802734376,-4.318206310272217,1.6517796516418457,-0.8582656979560852
1717009684380506400,46.93550634765625,-4.472144603729248,2.5644123554229736,-0.6304129362106323
1717009684420515000,46.97551513671875,-4.408614635467529,1.5503759384155273,2.4465153217315674
1717009684460493000,47.0154931640625,-5.320025444030762,1.8167132139205933,3.5216381549835205
1717009684500501800,47.05550170898437,-4.493524551391602,1.3426817655563354,3.7122280597686768
1717009684540510200,47.09551025390625,-2.9877419471740723,0.3341432809829712,1.1044443845748901
1717009684580518700,47.1355185546875,-1.7678439617156982,0.3378084897994995,-0.08002334833145142
1717009684620497000,47.17549682617187,-0.1466076523065567,-1.0488556623458862,1.043968677520752
1717009684660505000,47.215505126953126,2.119091510772705,-2.328618288040161,-0.0708603709936142
1717009684700513800,47.255513671875,4.3169846534729,-3.5405750274658203,-1.5076154470443726
1717009684740491800,47.29549169921875,5.904012680053711,-5.373781681060791,-1.3524556159973145
1717009684780500500,47.33550048828125,6.445849895477295,-4.630358695983887,-4.235739707946777
1717009684820509000,47.37550903320312,6.31451416015625,-4.458094596862793,-5.556430339813232
1717009684860517400,47.415517333984376,5.8551435470581055,-4.194811820983887,-3.4538321495056152
1717009684900495600,47.45549560546875,4.525900363922119,-3.0030136108398438,-3.219259738922119
1717009684940504000,47.49550415039062,2.3683245182037354,-1.99752938747406,-3.450777769088745
1717009684980512800,47.5355126953125,0.5797111392021179,-0.66584312915802,-3.1007518768310547
1717009685020490800,47.57549072265625,-1.2559388875961304,0.010995574295520782,-2.068389654159546
1717009685060499200,47.61549926757812,-2.7427849769592285,0.3891211748123169,-1.8374826908111572
1717009685100507600,47.655507568359376,-3.827681541442871,1.540602207183838,-1.7562376260757446
1717009685140515600,47.695515625,-5.021312236785889,2.0897700786590576,-1.0482447147369385
1717009685180493800,47.73549389648438,-4.575991630554199,2.3713788986206055,0.769079327583313
1717009685220502300,47.775502197265624,-5.352401256561279,1.1007791757583618,3.0335566997528076
1717009685260511200,47.81551123046875,-4.6938886642456055,0.9425650835037231,2.5112669467926025
1717009685300489500,47.85548950195312,-3.048828363418579,0.4807509481906891,1.4501941204071045
1717009685340498000,47.895497802734376,-1.321912407875061,-0.3274237811565399,1.289536476135254
1717009685380506400,47.93550634765625,0.23396138846874237,-1.8319848775863647,0.8234463334083557
1717009685420515000,47.97551513671875,1.5204435586929321,-2.690861463546753,-0.4764748811721802
1717009685460493000,48.0154931640625,3.207653284072876,-3.9877283573150635,-3.0384438037872314
1717009685500501800,48.05550170898437,5.024977684020996,-4.916243553161621,-4.014606475830078
1717009685540510200,48.09551025390625,6.75006103515625,-6.092770099639893,-4.321871757507324
1717009685580518700,48.1355185546875,6.461121559143066,-5.714644432067871,-3.8337903022766113
1717009685620497000,48.17549682617187,4.7415361404418945,-2.105041742324829,-6.320011615753174
1717009685660505000,48.215505126953126,3.8838813304901123,-3.2791247367858887,-3.221703290939331
1717009685700514000,48.25551416015625,2.1838431358337402,-1.4025466442108154,-2.917492389678955
1717009685740492000,48.29549194335937,0.475253164768219,0.1875356286764145,-3.4550538063049316
1717009685780674300,48.33567431640625,0.05803219974040985,0.39706242084503174,-3.260798692703247
1717009685820680000,48.375679931640626,0.05803219974040985,0.39706242084503174,-3.260798692703247
1717009685860660500,48.41566040039063,-3.4519994258880615,0.6017022728919983,0.27611109614372253
1717009685900671000,48.4556708984375,-4.517959117889404,1.2974777221679688,-0.2370157092809677
1717009685940674800,48.4956748046875,-5.068959712982178,1.8081611394882202,0.6133087277412415
1717009685980655900,48.53565576171875,-5.090950965881348,2.1007654666900635,1.7470746040344238
1717009686020666400,48.575666259765626,-4.474587917327881,2.101376533508301,2.9773571491241455
1717009686060671700,48.615671630859374,-3.888157367706299,0.8063421249389648,3.9468002319335938
1717009686100681000,48.655680908203124,-3.011565685272217,0.4905247986316681,2.6053402423858643
1717009686140659000,48.695658935546874,-1.5430456399917603,0.7067710757255554,0.04764748737215996
1717009686180666400,48.73566625976562,0.46731191873550415,0.9443976879119873,-1.4715744256973267
1717009686220676600,48.775676513671876,2.9181032180786133,-0.1661553531885147,-1.1050552129745483
1717009686260656400,48.815656494140626,4.787351131439209,-1.1032226085662842,-0.7672467231750488
1717009686300660000,48.855659912109374,4.844161510467529,-0.837496280670166,-0.42699480056762695
1717009686340671500,48.89567138671875,4.81850528717041,-1.4324790239334106,-1.5894713401794434
1717009686380680000,48.93567993164063,4.602869510650635,-1.2693779468536377,-3.1581733226776123
1717009686420655000,48.975655029296874,4.636466979980469,-1.0671815872192383,-4.703662395477295
1717009686460666600,49.01566650390625,3.737884521484375,-1.919338583946228,-0.759305477142334
1717009686500677400,49.05567749023437,2.1154263019561768,-1.4868459701538086,0.4392121136188507
1717009686540680400,49.09568041992188,0.2119702398777008,0.5845980644226074,-2.411695957183838
1717009686580662300,49.13566235351563,-1.007927656173706,0.32009339332580566,-1.719585657119751
1717009686620671000,49.1756708984375,-2.289522886276245,0.21624629199504852,0.10995574295520782
1717009686660675800,49.21567578125,-3.2699615955352783,1.074512004852295,0.7269296646118164
1717009686700659000,49.255658935546876,-4.097073078155518,1.7318029403686523,1.1068878173828125
1717009686740667400,49.29566748046875,-4.069584369659424,2.7769935131073,1.3964380025863647
1717009686780673300,49.33567333984375,-2.961474657058716,1.9022343158721924,2.8521299362182617
1717009686820684300,49.37568432617188,-3.8563923835754395,0.24068090319633484,4.743368625640869
1717009686860662500,49.41566259765625,-4.242459297180176,1.444696307182312,3.286454916000366
1717009686900666000,49.455666015625,-2.9962940216064453,-0.20463985204696655,1.7678439617156982
1717009686940680000,49.49567993164062,-2.772106409072876,1.5192219018936157,-0.394618958234787
1717009686980656400,49.535656494140625,-1.2864822149276733,0.5650503635406494,0.3830125033855438
1717009687020661000,49.57566088867188,-0.1417207419872284,0.24678955972194672,0.3445279896259308
1717009687060672800,49.6156728515625,1.4440854787826538,0.14844025671482086,-0.21380282938480377
1717009687100682000,49.65568188476563,3.1648929119110107,-0.5125159621238708,-0.7275404930114746
1717009687140655600,49.695655517578125,4.834998607635498,-1.1142182350158691,-1.443474531173706
1717009687180667600,49.73566772460938,5.601023197174072,-0.817337691783905,-1.9223929643630981
1717009687220678100,49.77567822265625,4.209472179412842,-0.3127630054950714,-2.47094988822937
1717009687260653600,49.81565356445312,3.676187038421631,-0.21319197118282318,-2.65726375579834
1717009687300665000,49.8556650390625,3.1954360008239746,-1.2278391122817993,-1.4868459701538086
1717009687340671500,49.89567138671875,1.9883663654327393,-0.5925393104553223,-1.871691107749939
1717009687380679700,49.9356796875,0.3830125033855438,0.2321287989616394,-1.9016234874725342
1717009687420657700,49.97565771484375,-1.4007140398025513,-0.09468411654233932,0.3341432809829712
1717009687460667400,50.01566748046875,-3.1477885246276855,1.4196507930755615,0.8112290501594543
1717009687500674800,50.0556748046875,-3.4458909034729004,2.9462029933929443,1.0708467960357666
1717009687540685800,50.095685791015626,-2.523484230041504,1.910786509513855,3.858224868774414
1717009687580663600,50.13566357421875,-4.20336389541626,1.228450059890747,4.451985836029053
1717009687620667100,50.175667236328124,-5.525276184082031,2.8374691009521484,2.355496406555176
1717009687660679000,50.215678955078126,-4.04270601272583,1.2119566202163696,1.7647897005081177
