time,seconds_elapsed,z,y,x
1717013147716806000,0.112805908203125,1.5621929168701172,0.1235886812210083,0.6046402454376221
1717013147756784000,0.1527841796875,-1.7624497413635254,0.20163124799728394,-1.5250365734100342
1717013147816781600,0.212781494140625,-3.224076271057129,-0.18763792514801025,-0.28221607208251953
1717013147876809700,0.272809814453125,-4.6743879318237305,-0.4906965494155884,-1.2575204372406006
1717013147936807200,0.33280712890625,-2.4089431762695312,-1.0050904750823975,-0.2979121208190918
1717013147996804900,0.392804931640625,-8.142366409301758,-1.720123291015625,-2.396927833557129
1717013148056802300,0.45280224609375,-3.239048719406128,-3.7360315322875977,3.4251623153686523
1717013148116800000,0.512800048828125,-2.327481508255005,-1.6384050846099854,6.779140472412109
1717013148176797400,0.57279736328125,3.7366490364074707,2.325719118118286,9.699780464172363
1717013148236795000,0.632794921875,2.4222915172576904,1.3277368545532227,4.689362049102783
1717013148296792600,0.69279248046875,-0.473779559135437,1.9339714050292969,-1.5472111701965332
1717013148356790000,0.7527900390625,-1.0370914936065674,2.3145127296447754,-0.3523445129394531
1717013148416787700,0.81278759765625,-3.2828216552734375,3.095271348953247,-0.7129974365234375
1717013148476785400,0.872785400390625,-0.7127432823181152,3.461085796356201,-0.8292884826660156
1717013148536782800,0.932782958984375,-0.8409991264343262,2.6660478115081787,-0.32700586318969727
1717013148596780500,0.992780517578125,-0.8972444534301758,1.7587270736694336,0.5291833877563477
1717013148656808400,1.052808349609375,-1.852901816368103,2.0566186904907227,1.8808565139770508
1717013148716806000,1.112805908203125,1.7817440032958984,4.405427932739258,1.1831436157226562
1717013148776803600,1.172803466796875,-0.7622146606445312,4.330246925354004,4.33083438873291
1717013148836801000,1.232801025390625,-5.417705535888672,1.2363886833190918,4.687618255615234
1717013148896798700,1.292798828125,-0.35399675369262695,-0.5733051300048828,6.395227432250977
1717013148956796200,1.352796142578125,-0.7907558679580688,-0.8231931924819946,8.5690279006958
1717013149016793600,1.412793701171875,0.8351719379425049,-3.9283294677734375,10.977988243103027
1717013149076791300,1.472791259765625,2.4803333282470703,-7.074268341064453,4.687277793884277
1717013149136789000,1.5327890625,-0.4612445831298828,-3.6602816581726074,-3.1198675632476807
1717013149196786400,1.592786376953125,8.245255470275879,-5.735302925109863,-2.6252098083496094
1717013149256784100,1.6527841796875,4.5973920822143555,-0.3456587791442871,-6.1597676277160645
1717013149316781600,1.712781494140625,-2.2506847381591797,0.7704067230224609,-5.0823774337768555
1717013149376809700,1.772809814453125,-3.0504589080810547,1.1588740348815918,-3.625669240951538
1717013149436807200,1.83280712890625,-0.9694318771362305,1.038088321685791,-2.963012218475342
1717013149496804900,1.892804931640625,-1.1938695907592773,1.1940327882766724,-1.7225761413574219
1717013149556802300,1.95280224609375,1.4745488166809082,-0.24201226234436035,-1.0781121253967285
1717013149616800000,2.012800048828125,2.4589619636535645,1.1391727924346924,-2.5191850662231445
1717013149676797400,2.07279736328125,0.38256216049194336,2.4119937419891357,-2.1423206329345703
1717013149736795000,2.132794921875,-3.100780487060547,1.1710827350616455,-2.733712911605835
1717013149796792600,2.19279248046875,1.0603160858154297,0.08610105514526367,-1.834726333618164
1717013149856790000,2.2527900390625,2.125649929046631,-1.3728134632110596,-3.6809422969818115
1717013149916787700,2.31278759765625,3.8582491874694824,-1.9529554843902588,-4.013116836547852
1717013149976785400,2.372785400390625,-0.26316404342651367,-0.2804856300354004,-3.625969409942627
1717013150036782800,2.432782958984375,-3.010730266571045,2.100478172302246,3.835660934448242
1717013150096780500,2.492780517578125,-0.5183877944946289,2.6857166290283203,-2.8871278762817383
1717013150156808400,2.552808349609375,-2.792792797088623,0.6638956069946289,-2.5743346214294434
1717013150216806000,2.612805908203125,-1.6930925846099854,-2.4223744869232178,-3.3473000526428223
1717013150276803600,2.672803466796875,-1.6339515447616577,-5.54130220413208,0.3026399612426758
1717013150336801000,2.732801025390625,-0.6991488933563232,-5.8159966468811035,7.711572647094727
1717013150396798700,2.792798828125,4.477568626403809,-7.122373580932617,3.671257972717285
1717013150456796200,2.852796142578125,-1.9847534894943237,-4.621170520782471,10.297350883483887
1717013150516793900,2.9127939453125,2.827451229095459,-4.835497856140137,4.113994598388672
1717013150576791300,2.972791259765625,-0.5144517421722412,-1.1510953903198242,8.824237823486328
1717013150636789000,3.0327890625,0.06562953442335129,0.7056713104248047,1.9115009307861328
1717013150696786700,3.09278662109375,-1.4890730381011963,3.5858538150787354,-0.19118928909301758
1717013150756784000,3.1527841796875,-0.2862684428691864,5.2351155281066895,0.4573054313659668
1717013150816781600,3.212781494140625,-0.3822100758552551,6.699324131011963,1.092287540435791
1717013150876809700,3.272809814453125,-1.0380682945251465,6.386956691741943,1.0014424324035645
1717013150936807200,3.33280712890625,-4.171671390533447,3.8693389892578125,0.9874472618103027
1717013150996804900,3.392804931640625,-3.501877546310425,-0.2584681510925293,-0.43175411224365234
1717013151056802300,3.45280224609375,0.99608314037323,-0.20461177825927734,3.3463568687438965
1717013151116800000,3.512800048828125,2.2454116344451904,-0.2391953468322754,3.748518943786621
1717013151176797400,3.57279736328125,-0.3790050745010376,-0.931795597076416,-1.787034034729004
1717013151236795000,3.632794921875,-1.2924556732177734,-0.27455663681030273,-1.5657286643981934
1717013151296792600,3.69279248046875,-1.4690414667129517,0.23828744888305664,0.7446660995483398
1717013151356790000,3.7527900390625,-1.120952844619751,0.9204397201538086,0.635322093963623
1717013151416787700,3.81278759765625,-0.6073567867279053,1.3195123672485352,2.180445671081543
1717013151476785400,3.872785400390625,-2.918952226638794,1.4060473442077637,3.2387194633483887
1717013151536782800,3.932782958984375,0.4507185220718384,1.3351573944091797,2.0044784545898438
1717013151596780500,3.992780517578125,4.926831245422363,2.2883214950561523,0.22243833541870117
1717013151656808400,4.052808349609375,1.7935380935668945,2.9329819679260254,-0.15151548385620117
1717013151716806100,4.11280615234375,-0.2573655843734741,5.078976154327393,-0.942349910736084
1717013151776803600,4.172803466796875,0.4338882565498352,4.3497467041015625,0.5879530906677246
1717013151836801000,4.232801025390625,-0.8757652044296265,1.935110092163086,2.034392833709717
1717013151896798700,4.292798828125,0.9848276376724243,0.07546186447143555,5.106491565704346
1717013151956796200,4.352796142578125,-0.32984161376953125,-1.6126322746276855,6.067749977111816
1717013152016793900,4.4127939453125,-1.2380156517028809,-3.653634548187256,5.939154624938965
1717013152076791300,4.472791259765625,-0.0786333680152893,-4.662035942077637,0.5967044830322266
1717013152136789000,4.5327890625,-0.19007956981658936,-5.028715133666992,0.27094364166259766
1717013152196786400,4.592786376953125,0.8722100257873535,-6.942652702331543,4.137212753295898
1717013152256784100,4.6527841796875,-0.1899113655090332,-5.074100494384766,1.2000999450683594
1717013152316781600,4.712781494140625,0.4917283058166504,-7.158721446990967,2.074857711791992
1717013152376809700,4.772809814453125,-0.7576775550842285,-1.510425329208374,0.41635608673095703
1717013152436807200,4.83280712890625,0.6986961364746094,0.5560545921325684,-4.341373920440674
1717013152496804900,4.892804931640625,5.795179843902588,-1.9705758094787598,-10.000685691833496
1717013152556802300,4.95280224609375,-1.5789356231689453,1.0005993843078613,-8.07547664642334
1717013152616800000,5.012800048828125,-2.2266249656677246,1.067251205444336,1.1681041717529297
1717013152676797400,5.07279736328125,-4.297837257385254,2.6115875244140625,-2.4550867080688477
1717013152736795000,5.132794921875,1.8280658721923828,0.6800470352172852,-0.2039356231689453
1717013152796792600,5.19279248046875,1.213792085647583,-0.1000509262084961,-5.084741115570068
1717013152856790000,5.2527900390625,3.7118542194366455,-0.6584663391113281,-3.8369791507720947
1717013152917177300,5.31317724609375,-0.8659448623657227,0.6063871383666992,-4.526116371154785
1717013152977175300,5.37317529296875,-0.9033622741699219,-0.13699054718017578,-6.248594284057617
1717013153037172700,5.4331728515625,0.01802206039428711,-1.1103343963623047,-6.225043773651123
1717013153097170200,5.493170166015625,1.4600574970245361,-1.3415651321411133,-6.6140971183776855
1717013153157198300,5.5531982421875,2.9333930015563965,-2.3692922592163086,-6.771847248077393
1717013153217195800,5.61319580078125,0.7480230331420898,-4.3659868240356445,-2.269102096557617
1717013153277193500,5.673193359375,-2.3787918090820312,-6.449510097503662,3.1831092834472656
1717013153337191000,5.73319091796875,1.38009774684906,-9.040800094604492,7.378724098205566
1717013153397188600,5.793188720703125,2.4484570026397705,-7.746433258056641,9.522377014160156
1717013153457186000,5.85318603515625,-0.12675881385803223,-7.148412704467773,6.638232231140137
1717013153517183500,5.91318359375,-2.0632379055023193,-6.489915370941162,6.878480911254883
1717013153577181200,5.97318115234375,1.8858399391174316,-5.361145496368408,2.62825870513916
1717013153637179000,6.033178955078125,-6.5632781982421875,-2.9568252563476562,6.228911399841309
1717013153697176000,6.093176025390625,1.9862971305847168,-0.2891840934753418,3.3604001998901367
1717013153757174000,6.153174072265625,-4.392122745513916,3.3870983123779297,2.12839412689209
1717013153817171500,6.21317138671875,0.4839905798435211,5.046167373657227,-0.16174030303955078
1717013153877199600,6.27319970703125,0.14234861731529236,6.668607711791992,-0.35335683822631836
1717013153937197000,6.333197021484375,0.7531137466430664,7.246474742889404,0.17878103256225586
1717013153997194500,6.393194580078125,-1.5083307027816772,6.002283096313477,1.0587339401245117
1717013154057192200,6.453192138671875,0.30696749687194824,1.2853584289550781,2.151355743408203
1717013154117189600,6.513189697265625,2.832759141921997,-0.24565505981445312,2.5354576110839844
1717013154177187300,6.573187255859375,2.7833080291748047,1.34346342086792,6.275853157043457
1717013154237184800,6.633184814453125,-2.5576462745666504,0.3218846321105957,-0.18628358840942383
1717013154297182500,6.693182373046875,-2.551072597503662,-0.3369145393371582,0.07838296890258789
1717013154357180000,6.753179931640625,-0.3375123143196106,-0.9538311958312988,-1.0377826690673828
1717013154417177600,6.813177490234375,1.389785647392273,-0.8212761878967285,-0.9566874504089355
1717013154477175300,6.87317529296875,-0.9533839225769043,-0.33974123001098633,-1.47221040725708
1717013154537172700,6.9331728515625,-1.3972020149230957,-0.43639516830444336,-0.4060673713684082
1717013154597170200,6.993170166015625,0.0180056095123291,-0.0723729133605957,0.2762718200683594
1717013154657198300,7.0531982421875,-0.11878418922424316,0.06186056137084961,0.751091480255127
1717013154717195800,7.11319580078125,-0.2719651758670807,-0.14316225051879883,0.7692489624023438
1717013154777193500,7.173193359375,-0.020068392157554626,0.5035233497619629,0.07232809066772461
1717013154837191000,7.23319091796875,0.04064357280731201,0.8316807746887207,0.6038632392883301
1717013154897188600,7.293188720703125,0.6711585521697998,0.37924861907958984,0.29375267028808594
1717013154957186000,7.35318603515625,0.1573813557624817,0.4081082344055176,0.16161346435546875
1717013155017183500,7.41318359375,0.9426853656768799,1.9410791397094727,0.16179466247558594
1717013155077181200,7.47318115234375,1.320298194885254,2.462576150894165,-1.3458218574523926
1717013155137179000,7.533178955078125,-0.3787456452846527,2.5548129081726074,-3.070316791534424
1717013155197176300,7.59317626953125,0.26467737555503845,1.9973721504211426,-1.6840624809265137
1717013155257174000,7.653174072265625,0.2196522057056427,-0.7096676826477051,-1.4164505004882812
1717013155317171500,7.71317138671875,-1.5412428379058838,-2.7801480293273926,1.7839813232421875
1717013155377199600,7.77319970703125,-0.2645873427391052,-4.5421295166015625,5.352740287780762
1717013155437197000,7.833197021484375,0.884350061416626,-5.608734130859375,3.8180856704711914
1717013155497194800,7.89319482421875,-1.2755465507507324,-7.21962833404541,4.711165428161621
1717013155557192200,7.953192138671875,-0.7349924445152283,-8.002941131591797,8.019861221313477
1717013155617189600,8.013189697265625,0.7928074598312378,-9.014362335205078,6.142295837402344
1717013155677187300,8.073187255859375,1.6034616231918335,-8.547486305236816,7.4297685623168945
1717013155737184800,8.133184814453125,-1.411636471748352,-8.458998680114746,0.2222733497619629
1717013155797182500,8.193182373046875,-2.2699713706970215,-6.897350788116455,-4.164083957672119
1717013155857180000,8.253179931640625,-4.066345691680908,0.9373011589050293,-6.127005577087402
1717013155917177300,8.31317724609375,-0.8786721229553223,-1.8465943336486816,0.347475528717041
1717013155977175000,8.373175048828125,-2.018911838531494,-2.15618896484375,1.5455403327941895
1717013156037172700,8.4331728515625,0.571274995803833,-1.9799656867980957,-1.5907330513000488
1717013156097170200,8.493170166015625,-0.32242250442504883,-0.25205516815185547,1.5833985805511475
1717013156157198300,8.5531982421875,0.006473064422607422,-2.1609926223754883,0.13536357879638672
1717013156217195800,8.61319580078125,0.7444683313369751,-0.02871417999267578,-2.4501144886016846
1717013156277193500,8.673193359375,-0.5898116827011108,-1.2502307891845703,1.4187757968902588
1717013156337191000,8.73319091796875,-0.08918893337249756,-1.597095012664795,0.43568921089172363
1717013156397188600,8.793188720703125,-0.7359229922294617,-2.5547738075256348,-0.7496657371520996
1717013156457186000,8.85318603515625,-1.9461901187896729,-2.873690605163574,-2.275240898132324
1717013156517183500,8.91318359375,-2.6321983337402344,-4.030004024505615,-3.0373435020446777
1717013156577181200,8.97318115234375,-3.0769524574279785,-4.3390793800354,-2.501418352127075
1717013156637178600,9.0331787109375,-2.642601490020752,-4.696127891540527,-1.3904213905334473
1717013156697176000,9.093176025390624,-0.5496755838394165,-5.72717809677124,0.19620084762573242
1717013156757174000,9.153174072265625,1.9753944873809814,-7.608893394470215,5.346746921539307
1717013156817171500,9.21317138671875,6.468071937561035,-12.638351440429688,8.67451286315918
1717013156877199600,9.27319970703125,4.524748802185059,-10.116994857788086,7.102835655212402
1717013156937197000,9.333197021484375,2.2434275150299072,-8.769479751586914,6.976441383361816
1717013156997194500,9.393194580078125,-0.5444488525390625,-8.138370513916016,4.638068199157715
1717013157057192200,9.453192138671875,-1.7843408584594727,-6.634542942047119,6.742684364318848
1717013157117189600,9.513189697265625,1.9115625619888306,-4.37564754486084,4.058849334716797
1717013157177187300,9.573187255859375,-0.1656493991613388,-3.557124137878418,4.545454025268555
1717013157237184800,9.633184814453125,4.12589168548584,0.6908230781555176,0.49938488006591797
1717013157297182500,9.693182373046875,-5.051811695098877,3.875741481781006,-2.023538112640381
1717013157357180000,9.753179931640625,0.9603601694107056,4.56585168838501,-3.501321315765381
1717013157417177600,9.813177490234375,1.3050882816314697,5.040581226348877,-3.452667236328125
1717013157477175300,9.87317529296875,-2.187342882156372,2.7824599742889404,-4.344367980957031
1717013157537172700,9.9331728515625,-1.141366720199585,-1.987947940826416,-1.992344856262207
1717013157597170200,9.993170166015625,-0.05666530132293701,-2.26900053024292,-0.6631526947021484
1717013157657198300,10.0531982421875,3.4337844848632812,-1.9577546119689941,1.4539384841918945
1717013157717195800,10.11319580078125,0.021059751510620117,-1.7697701454162598,-0.22177886962890625
1717013157777193500,10.173193359375,-4.326470851898193,-2.3807950019836426,-2.3225812911987305
1717013157837191000,10.23319091796875,-2.320762872695923,-2.7914953231811523,-1.4523534774780273
1717013157897188600,10.293188720703125,0.04530048370361328,-2.437073230743408,-1.888871192932129
1717013157957186000,10.35318603515625,-0.4431335926055908,-2.2700552940368652,-2.320302963256836
1717013158017183500,10.41318359375,-1.339759349822998,-1.871288776397705,-1.811901569366455
1717013158077181200,10.47318115234375,-0.5591105222702026,-1.354567527770996,-0.6619563102722168
1717013158137179000,10.533178955078125,-0.08734500408172607,-0.5747599601745605,-0.5527167320251465
1717013158197176300,10.59317626953125,0.01977670192718506,-0.18454456329345703,0.35747718811035156
1717013158257174000,10.653174072265625,0.4621095657348633,-0.7724599838256836,0.8840270042419434
1717013158317171500,10.71317138671875,1.0042787790298462,-0.49639081954956055,0.06350374221801758
1717013158377199600,10.77319970703125,-1.663805365562439,1.0544257164001465,-2.096369743347168
1717013158437197000,10.833197021484375,-0.47329437732696533,1.651841163635254,-1.5071172714233398
1717013158497194800,10.89319482421875,-0.6631652116775513,3.067814588546753,-1.0048131942749023
1717013158557192200,10.953192138671875,-0.23504912853240967,2.5148637294769287,0.29419851303100586
1717013158617189600,11.013189697265625,-0.0778314471244812,0.8890037536621094,1.6726727485656738
1717013158677187300,11.073187255859375,0.6472662687301636,-1.811230182647705,3.6595373153686523
1717013158737184800,11.133184814453125,0.19664718210697174,-2.914628505706787,3.3127012252807617
1717013158797182500,11.193182373046875,-1.0812299251556396,-4.667713642120361,1.5826606750488281
1717013158857180000,11.253179931640625,1.43959379196167,-6.507205963134766,1.9567604064941406
1717013158917177300,11.31317724609375,1.4687504768371582,-6.445183753967285,1.676177978515625
1717013158977175000,11.373175048828125,-0.8101150989532471,-7.6136298179626465,2.656622886657715
1717013159037172700,11.4331728515625,1.894517421722412,-8.529869079589844,1.6235685348510742
1717013159097170200,11.493170166015625,0.1330418586730957,-6.57798433303833,3.5382261276245117
1717013159157198300,11.5531982421875,0.06703424453735352,-3.585080146789551,3.618710517883301
1717013159217195800,11.61319580078125,0.05320549011230469,-5.289956092834473,-7.039898872375488
1717013159277193500,11.673193359375,1.6460497379302979,-1.325883388519287,-3.2885875701904297
1717013159337191000,11.73319091796875,-2.7829644680023193,0.022948741912841797,-0.8816318511962891
1717013159397188600,11.793188720703125,-2.4769139289855957,-0.589634895324707,-1.1965703964233398
1717013159457186000,11.85318603515625,0.4149959087371826,-0.7154297828674316,-0.02513408660888672
1717013159517183500,11.91318359375,-0.06779813766479492,-0.659212589263916,-0.17229795455932617
1717013159577181200,11.97318115234375,0.4809603691101074,-1.5034613609313965,1.3344860076904297
1717013159637178600,12.0331787109375,3.775299549102783,-1.2508974075317383,-4.377535820007324
1717013159697176300,12.09317626953125,-1.3742735385894775,0.34488821029663086,0.8690729141235352
1717013159757174000,12.153174072265625,-1.7364754676818848,-0.408907413482666,0.5167717933654785
1717013159817171500,12.21317138671875,0.6734745502471924,-1.6853861808776855,-1.2677297592163086
1717013159877199600,12.27319970703125,0.9252088069915771,-1.7471184730529785,-2.302554130554199
1717013159937197000,12.333197021484375,0.31095099449157715,-1.5968213081359863,-3.2294974327087402
1717013159997194500,12.393194580078125,-0.05104684829711914,-1.301222801208496,-3.601642370223999
1717013160057192200,12.453192138671875,-1.4634089469909668,-1.6453022956848145,-2.8950791358947754
1717013160117189600,12.513189697265625,0.7669031620025635,-1.6579320430755615,-2.942025661468506
1717013160177187300,12.573187255859375,0.7452683448791504,-4.032495975494385,-1.5506978034973145
1717013160237184800,12.633184814453125,0.9938514232635498,-5.944766998291016,3.5597219467163086
1717013160297182500,12.693182373046875,1.5108563899993896,-9.123672485351562,6.037570953369141
1717013160357180000,12.753179931640625,2.625638961791992,-8.69596004486084,3.9980344772338867
1717013160417177600,12.813177490234375,0.07835865020751953,-7.853953838348389,4.994824409484863
1717013160477175300,12.87317529296875,-3.2164433002471924,-7.995308876037598,4.6234331130981445
1717013160537172700,12.9331728515625,3.7112722396850586,-7.912281036376953,2.422144889831543
1717013160597170200,12.993170166015625,-1.624289870262146,-4.705726623535156,4.161052703857422
1717013160657198300,13.0531982421875,1.7315093278884888,-2.969733715057373,4.115571022033691
1717013160717195800,13.11319580078125,1.1419038772583008,0.19377422332763672,1.3405561447143555
1717013160777193500,13.173193359375,-2.0196850299835205,2.977915048599243,0.6793060302734375
1717013160837191000,13.23319091796875,-4.444398403167725,4.22780704498291,-1.5419564247131348
1717013160897188600,13.293188720703125,0.2975519895553589,4.682005405426025,-1.6833500862121582
1717013160957186000,13.35318603515625,-1.4279297590255737,4.6828203201293945,-3.6197140216827393
1717013161017183500,13.41318359375,-1.753504753112793,1.7139472961425781,-1.6433677673339844
1717013161077181200,13.47318115234375,1.3641488552093506,-2.9817733764648438,0.2513093948364258
1717013161137179000,13.533178955078125,2.8638510704040527,-1.7086448669433594,1.9922499656677246
1717013161197176300,13.59317626953125,0.13716387748718262,-1.5458145141601562,-0.9049630165100098
1717013161257174000,13.653174072265625,-1.9817923307418823,-0.9179625511169434,-0.9980473518371582
1717013161317171500,13.71317138671875,-0.640303373336792,-1.9223480224609375,-2.2019639015197754
1717013161377199600,13.77319970703125,0.6062674522399902,-1.5630207061767578,-1.963994026184082
1717013161437197000,13.833197021484375,-0.7077209949493408,-1.4989466667175293,-0.8930597305297852
1717013161497194800,13.89319482421875,-1.8455945253372192,-1.4473094940185547,-1.0312986373901367
1717013161557192200,13.953192138671875,-0.6000093221664429,-1.2572460174560547,-0.745640754699707
1717013161617189600,14.013189697265625,-0.15013086795806885,-0.062489986419677734,-0.2510075569152832
1717013161677187300,14.073187255859375,0.24085986614227295,0.06460428237915039,0.10235357284545898
1717013161737184800,14.133184814453125,0.08827626705169678,0.11261796951293945,0.4247169494628906
1717013161797182500,14.193182373046875,-0.24229133129119873,1.17592191696167,0.8245549201965332
1717013161857180000,14.253179931640625,-0.1004021167755127,1.1948399543762207,1.5546221733093262
1717013161917177300,14.31317724609375,0.17443299293518066,1.174537181854248,1.674248218536377
1717013161977175000,14.373175048828125,3.96421480178833,1.1787171363830566,2.219252109527588
1717013162037172700,14.4331728515625,2.0589287281036377,1.7280263900756836,2.3767924308776855
1717013162097170200,14.493170166015625,1.8386067152023315,2.3136463165283203,1.7828302383422852
1717013162157198300,14.5531982421875,1.4960622787475586,1.8337717056274414,2.0736794471740723
1717013162217195800,14.61319580078125,0.26443538069725037,0.9012641906738281,2.0904579162597656
1717013162277193500,14.673193359375,0.504366397857666,-0.4502105712890625,0.32495689392089844
1717013162337191000,14.73319091796875,1.331196665763855,-2.692713737487793,1.0732698440551758
1717013162397188600,14.793188720703125,0.943671464920044,-4.117458343505859,0.3763618469238281
1717013162457186000,14.85318603515625,0.7019815444946289,-4.617181301116943,0.23534107208251953
1717013162517183500,14.91318359375,1.9254928827285767,-5.922489166259766,1.4826602935791016
1717013162577181400,14.973181396484375,-0.5219063758850098,-7.083815574645996,-0.6438531875610352
1717013162637178600,15.0331787109375,-0.6987118721008301,-6.706197738647461,1.8895196914672852
1717013162697176300,15.09317626953125,-1.0035700798034668,-6.248523712158203,2.272960662841797
1717013162757174000,15.153174072265625,0.9075093269348145,-3.1494481563568115,-0.0592041015625
1717013162817171500,15.21317138671875,-0.00525665283203125,0.5042471885681152,0.4748530387878418
1717013162877199600,15.27319970703125,4.752473831176758,-3.094505786895752,-6.937002182006836
1717013162937197000,15.333197021484375,1.3609797954559326,1.3119778633117676,-3.3384933471679688
1717013162997194500,15.393194580078125,-1.9316169023513794,4.065479278564453,4.410056114196777
1717013163057192200,15.453192138671875,-2.1337387561798096,2.5026144981384277,2.33261775970459
1717013163117189600,15.513189697265625,-0.7315599918365479,1.1198525428771973,0.5298194885253906
1717013163177187300,15.573187255859375,0.06614518165588379,0.05743885040283203,-0.2823929786682129
1717013163237184800,15.633184814453125,2.171621561050415,-0.8259048461914062,-2.237433433532715
1717013163297182500,15.693182373046875,2.1540870666503906,0.9645037651062012,-4.323183059692383
1717013163357180000,15.753179931640625,-2.18347430229187,1.6648674011230469,2.053582191467285
1717013163417177600,15.813177490234375,-0.8119254112243652,-0.03140974044799805,-1.3816113471984863
1717013163477175300,15.87317529296875,2.82200026512146,-1.176927089691162,-4.234186172485352
1717013163537172700,15.9331728515625,1.6215946674346924,-1.7909612655639648,-4.919007778167725
1717013163597170200,15.993170166015625,3.5511598587036133,-1.9257359504699707,-3.0644240379333496
1717013163657198300,16.0531982421875,1.9749983549118042,-1.9665918350219727,-6.408771991729736
1717013163717195800,16.11319580078125,-2.8824477195739746,-2.261971950531006,-2.5730390548706055
1717013163777193500,16.173193359375,-2.115520477294922,-4.1932830810546875,2.112180233001709
1717013163837191000,16.23319091796875,-0.5535509586334229,-7.3635053634643555,5.335698127746582
1717013163896763100,16.29276318359375,2.733980178833008,-7.566658020019531,6.490558624267578
1717013163956760800,16.3527607421875,2.808424234390259,-7.489134311676025,6.196804046630859
1717013164016758300,16.41275830078125,-1.3761317729949951,-5.320215225219727,6.811821937561035
1717013164076756000,16.472755859375,0.32394325733184814,-5.043703079223633,5.467517852783203
1717013164136753700,16.532753662109375,2.988027572631836,-4.879763603210449,1.6151151657104492
1717013164196751000,16.592751220703125,-2.750584602355957,-3.1891355514526367,3.3263320922851562
1717013164256748800,16.652748779296875,3.8459434509277344,0.15931129455566406,0.6693115234375
1717013164316746200,16.712746337890625,-0.8485631942749023,2.968749523162842,-0.5730414390563965
1717013164376774100,16.772774169921874,0.2917670011520386,4.371825218200684,-0.9234533309936523
1717013164436771800,16.832771728515624,-1.082558035850525,6.832064628601074,-2.2232437133789062
1717013164496769500,16.89276953125,2.926762580871582,5.466339111328125,1.442793369293213
1717013164556767000,16.95276708984375,0.44110655784606934,0.5872659683227539,1.0903668403625488
1717013164616764400,17.012764404296874,0.13923251628875732,-3.6972203254699707,1.428987979888916
1717013164676762000,17.07276220703125,2.769623279571533,0.46892309188842773,0.16452693939208984
1717013164736759600,17.132759521484374,-0.9612901210784912,0.8123383522033691,1.2233314514160156
1717013164796757000,17.192757080078124,-3.296325445175171,-0.10254669189453125,-1.1213626861572266
1717013164856754700,17.252754638671874,0.4847235381603241,-2.33030366897583,-0.8156213760375977
1717013164916752100,17.312752197265624,2.6365606784820557,-1.8833961486816406,-1.5584325790405273
1717013164976749800,17.372749755859374,0.022958271205425262,-0.7932233810424805,-1.9220356941223145
1717013165036747500,17.43274755859375,-1.7700954675674438,-0.3607974052429199,-1.094386100769043
1717013165096745000,17.492744873046874,0.18514615297317505,-0.9740514755249023,0.3422732353210449
1717013165156773000,17.552773193359375,0.4247843325138092,0.4717216491699219,-0.3606758117675781
1717013165216770600,17.6127705078125,0.03761456906795502,0.6062064170837402,0.9704928398132324
1717013165276768300,17.672768310546875,1.474274754524231,0.9634995460510254,1.8340673446655273
1717013165336765700,17.732765625,0.4307505488395691,1.4903335571289062,4.62689733505249
1717013165396763100,17.79276318359375,1.2124370336532593,1.002185344696045,6.391381740570068
1717013165456760800,17.8527607421875,1.045503854751587,-0.2068037986755371,6.171865463256836
1717013165516758300,17.91275830078125,1.290071964263916,-2.8622970581054688,4.301514625549316
1717013165576756000,17.972755859375,1.1502010822296143,-4.6294708251953125,1.7619142532348633
1717013165636753400,18.03275341796875,1.1641747951507568,-5.461173057556152,-1.591291904449463
1717013165696750800,18.092750732421877,-0.07024669647216797,-5.506597995758057,-2.681457996368408
1717013165756748800,18.152748779296875,0.8085439801216125,-4.810495376586914,-3.237588882446289
1717013165816746200,18.212746337890625,-0.2183428406715393,-5.370112419128418,-1.500375747680664
1717013165876774100,18.272774169921874,0.3010270595550537,-6.486621379852295,-2.211021900177002
1717013165936771800,18.332771728515624,0.4075573682785034,-6.1086015701293945,-2.112316608428955
1717013165996769300,18.392769287109374,-1.5235316753387451,-5.479465484619141,1.3417272567749023
1717013166056767000,18.45276708984375,0.6282896995544434,-5.887395858764648,-1.8489766120910645
1717013166116764400,18.512764404296874,-0.40703654289245605,-6.754690647125244,0.8309078216552734
1717013166176762000,18.57276220703125,-0.7491095066070557,-6.397611141204834,3.2257003784179688
1717013166236759600,18.632759521484374,-1.3313353061676025,-0.8352165222167969,1.5619401931762695
1717013166296757000,18.692757080078124,-0.8701381683349609,3.870753765106201,3.497002124786377
1717013166356754700,18.752754638671874,3.5090579986572266,-1.9737176895141602,-8.067437171936035
1717013166416752400,18.81275244140625,-5.973466873168945,1.5438508987426758,2.785806655883789
1717013166476750000,18.87275,-1.9128748178482056,2.133969783782959,4.993908405303955
1717013166536747500,18.93274755859375,2.0092740058898926,-0.17531728744506836,2.8753156661987305
1717013166596745000,18.992744873046874,1.045107126235962,-0.3741426467895508,0.6978068351745605
1717013166656773000,19.052773193359375,0.15658462047576904,-0.6132712364196777,-1.4050207138061523
1717013166716770600,19.1127705078125,3.944761276245117,-1.0725111961364746,-1.0153822898864746
1717013166776768300,19.172768310546875,0.8015332221984863,0.47188615798950195,1.7698607444763184
1717013166836765700,19.232765625,-1.9732085466384888,1.1076383590698242,-0.5737433433532715
1717013166896763400,19.292763427734375,0.5811023712158203,0.6141667366027832,-0.8109655380249023
1717013166956760800,19.3527607421875,1.7509692907333374,-0.26540279388427734,-3.7845370769500732
1717013167016758300,19.41275830078125,1.2288999557495117,-1.701042652130127,-6.760006904602051
1717013167076756000,19.472755859375,1.0286632776260376,-2.5670711994171143,-5.598507881164551
1717013167136753700,19.532753662109375,-0.5857541561126709,-2.379521369934082,-3.7478127479553223
1717013167196751000,19.592751220703125,-0.2594141960144043,-5.178187847137451,0.34179019927978516
1717013167256748800,19.652748779296875,-0.7287514209747314,-8.400952339172363,1.1832780838012695
1717013167316746200,19.712746337890625,2.5439982414245605,-10.100876808166504,0.7748613357543945
1717013167376774100,19.772774169921874,1.3351268768310547,-11.482397079467773,6.794556617736816
1717013167436771800,19.832771728515624,-0.3915555477142334,-9.895133018493652,3.2522048950195312
1717013167496769500,19.89276953125,2.8301165103912354,-10.479781150817871,5.968647003173828
1717013167556767000,19.95276708984375,-5.321425437927246,-8.33843994140625,2.958639144897461
1717013167616764400,20.012764404296874,3.4270577430725098,-6.771515369415283,7.2211713790893555
1717013167676762000,20.07276220703125,-4.481553554534912,-2.281006336212158,4.772982597351074
1717013167736759600,20.132759521484374,7.628090858459473,0.5993976593017578,3.5487565994262695
1717013167796757000,20.192757080078124,-1.7411832809448242,2.337113857269287,1.0421781539916992
1717013167856754700,20.252754638671874,-0.11205929517745972,5.2099409103393555,-0.9347200393676758
1717013167916752100,20.312752197265624,0.03813830018043518,6.299156188964844,-1.720250129699707
1717013167976749800,20.372749755859374,-0.9130033254623413,5.454622268676758,-1.4375386238098145
1717013168036747500,20.43274755859375,-1.158431887626648,1.7641692161560059,-0.20482921600341797
1717013168096745000,20.492744873046874,-1.0560230016708374,-3.253831386566162,3.3712539672851562
1717013168156773000,20.552773193359375,3.032071113586426,-1.8938608169555664,-2.68001651763916
1717013168216770600,20.6127705078125,0.9905015230178833,-0.3958740234375,-0.7229599952697754
1717013168276768300,20.672768310546875,-3.451294422149658,-0.9808087348937988,-1.4534497261047363
1717013168336765700,20.732765625,-2.3783488273620605,-2.882899284362793,-2.5284652709960938
1717013168396763400,20.792763427734375,2.3077328205108643,-3.0768685340881348,-2.633561134338379
1717013168456760800,20.8527607421875,1.0049772262573242,-2.273484230041504,-3.6006898880004883
1717013168516758300,20.91275830078125,-1.1045137643814087,-1.6067099571228027,-2.1672263145446777
1717013168576756000,20.972755859375,-0.9779138565063477,-1.235426425933838,-0.5703473091125488
1717013168636753400,21.03275341796875,-1.291401743888855,-0.04030132293701172,1.3148694038391113
1717013168696750800,21.092750732421877,0.7956629395484924,1.4019007682800293,0.45924854278564453
1717013168756748800,21.152748779296875,0.9284242391586304,2.053081512451172,2.6391611099243164
1717013168816746200,21.212746337890625,2.9669876098632812,1.668576717376709,8.189233779907227
1717013168876774400,21.2727744140625,2.1186890602111816,1.1852846145629883,7.150125026702881
1717013168936771800,21.332771728515624,1.4120113849639893,-1.5886411666870117,4.779064178466797
1717013168996769300,21.392769287109374,0.6787818670272827,-2.6099276542663574,1.6093034744262695
1717013169056767000,21.45276708984375,0.4916062653064728,-3.071091413497925,-0.7779703140258789
1717013169116764400,21.512764404296874,0.7879501581192017,-4.008964538574219,-1.5122790336608887
1717013169176762000,21.57276220703125,0.36568212509155273,-3.4724767208099365,-1.5316290855407715
1717013169236759600,21.632759521484374,0.45429039001464844,-0.4268178939819336,-0.524266242980957
1717013169296757200,21.69275732421875,-1.213760256767273,-0.9502437114715576,-2.618299961090088
1717013169356754700,21.752754638671874,-1.2709463834762573,-1.0224213600158691,-2.498284339904785
1717013169416752400,21.81275244140625,-0.1621890664100647,0.8371987342834473,-3.393798351287842
1717013169476750000,21.87275,-1.435425043106079,-1.0984666347503662,0.021004676818847656
1717013169536747500,21.93274755859375,-1.8182939291000366,-1.4114967584609985,-1.5816574096679688
1717013169596745000,21.992744873046874,-0.9924637079238892,-0.6927002668380737,-2.303858757019043
1717013169656773000,22.052773193359375,-3.567253589630127,2.9388163089752197,2.0027217864990234
1717013169716770600,22.1127705078125,-3.2367076873779297,6.91935920715332,2.936354637145996
1717013169776768300,22.172768310546875,2.4836113452911377,4.461389541625977,-6.52064323425293
1717013169836765700,22.232765625,-1.6912305355072021,4.505757808685303,-4.769622802734375
1717013169896763400,22.292763427734375,-2.303605318069458,7.3576250076293945,2.782853126525879
1717013169956760800,22.3527607421875,0.11146014928817749,5.750553131103516,-0.19369888305664062
1717013170016758300,22.41275830078125,-1.3468612432479858,4.457039833068848,-1.2155218124389648
1717013170076756000,22.472755859375,-0.41300034523010254,3.726923942565918,-2.388002395629883
1717013170136753700,22.532753662109375,2.49718976020813,3.3004565238952637,-3.9268789291381836
1717013170196751000,22.592751220703125,0.42446401715278625,4.624963760375977,-5.6518049240112305
1717013170256748800,22.652748779296875,-3.802978277206421,5.907887935638428,0.4236268997192383
1717013170316746200,22.712746337890625,-0.5728080868721008,3.7507784366607666,-2.998101234436035
1717013170376774400,22.7727744140625,1.9255015850067139,2.374204397201538,-6.509345531463623
1717013170436771800,22.832771728515624,-0.7961462736129761,1.873408317565918,-8.857474327087402
1717013170496769500,22.89276953125,-1.4985225200653076,2.1085469722747803,-10.475122451782227
1717013170556767000,22.95276708984375,-2.533449411392212,1.5535582304000854,-5.776555061340332
1717013170616764400,23.012764404296874,-2.216269016265869,0.7136872410774231,-1.6200532913208008
1717013170676762000,23.07276220703125,0.509886622428894,-1.2566511631011963,2.547971725463867
1717013170736759600,23.132759521484374,2.306042194366455,-4.020990371704102,3.8758649826049805
1717013170796757200,23.19275732421875,-6.988848686218262,-1.0794446468353271,12.07906723022461
1717013170856754700,23.252754638671874,-4.383636951446533,-0.7886412143707275,6.396631240844727
1717013170916752100,23.312752197265624,4.06151008605957,-2.621325969696045,2.1482677459716797
1717013170976749800,23.372749755859374,-3.8642070293426514,-2.8918890953063965,3.4629764556884766
1717013171036747500,23.43274755859375,2.91015625,-1.7956676483154297,2.9514575004577637
1717013171096745000,23.492744873046874,2.371445655822754,0.1768016815185547,4.353385925292969
1717013171156773000,23.552773193359375,1.461298942565918,3.184575080871582,6.6083455085754395
1717013171216770600,23.6127705078125,-1.9719040393829346,5.548652648925781,4.577804088592529
1717013171276768300,23.672768310546875,-0.34771162271499634,6.393767356872559,2.7076570987701416
1717013171336765700,23.732765625,-1.1956191062927246,7.491423606872559,1.3393950462341309
1717013171396763400,23.792763427734375,1.2738573551177979,6.452020645141602,1.1935968399047852
1717013171456760800,23.8527607421875,4.018804550170898,2.370377540588379,4.134497165679932
1717013171516758300,23.91275830078125,4.782113075256348,1.124471664428711,7.438620567321777
1717013171576756000,23.972755859375,1.8467578887939453,2.1149182319641113,9.016438484191895
1717013171636753400,24.03275341796875,-2.5577824115753174,1.586252212524414,2.5719075202941895
1717013171696750800,24.092750732421877,-1.7441736459732056,1.9071006774902344,3.115497350692749
1717013171756748800,24.152748779296875,0.028810501098632812,1.014084815979004,4.069034099578857
1717013171816746200,24.212746337890625,0.2741875648498535,0.6681499481201172,2.2764151096343994
1717013171876774400,24.2727744140625,0.028631627559661865,0.6077756881713867,-0.15027141571044922
1717013171936771800,24.332771728515624,0.6221492886543274,0.321136474609375,1.0474708080291748
1717013171996769300,24.392769287109374,-0.08943594992160797,2.1850075721740723,2.5414986610412598
1717013172056767000,24.45276708984375,0.631584107875824,3.5905938148498535,6.320676803588867
1717013172116764400,24.512764404296874,4.034084320068359,2.8772459030151367,3.5193843841552734
1717013172176762000,24.57276220703125,5.027604579925537,3.1348581314086914,3.2049131393432617
1717013172236759600,24.632759521484374,3.365941286087036,3.5809993743896484,4.852201461791992
1717013172296757200,24.69275732421875,4.422520160675049,4.4913225173950195,6.165335178375244
1717013172356754700,24.752754638671874,3.2629594802856445,4.466696262359619,4.217817783355713
1717013172416752400,24.81275244140625,2.0883586406707764,2.799868106842041,4.187623500823975
1717013172476750000,24.87275,2.1958377361297607,1.1223793029785156,5.120116710662842
1717013172536747500,24.93274755859375,1.3232355117797852,0.6705379486083984,6.538254261016846
1717013172596745000,24.992744873046874,-0.5199298858642578,-1.1800580024719238,4.763846397399902
1717013172656773000,25.052773193359375,-0.3627946376800537,-2.1318411827087402,2.7689008712768555
1717013172716770600,25.1127705078125,-0.05503392219543457,-2.4090042114257812,0.24014568328857422
1717013172776768300,25.172768310546875,-0.9967396259307861,-3.0843944549560547,-1.0912189483642578
1717013172836765700,25.232765625,-0.9240987300872803,-1.2370645999908447,-2.250882625579834
1717013172896763400,25.292763427734375,-1.0971481800079346,-1.3430612087249756,-1.8571381568908691
1717013172956760800,25.3527607421875,-0.2286825180053711,-1.392411470413208,-4.398454189300537
1717013173016758300,25.41275830078125,-0.24977260828018188,-0.4854887127876282,-3.661571502685547
1717013173076756000,25.472755859375,-0.2936059236526489,4.927243232727051,-1.9208202362060547
1717013173136753700,25.532753662109375,-2.5310709476470947,7.152756214141846,-0.34055519104003906
1717013173196751000,25.592751220703125,1.278017282485962,5.448841094970703,-6.573392868041992
1717013173256748800,25.652748779296875,-1.504048466682434,6.86667013168335,-1.8065061569213867
1717013173316746200,25.712746337890625,-2.9008359909057617,9.743204116821289,0.6758699417114258
1717013173376774400,25.7727744140625,-0.2813660502433777,8.430854797363281,-0.4216575622558594
1717013173436771800,25.832771728515624,-0.8254413604736328,5.24688720703125,-1.4242992401123047
1717013173496769500,25.89276953125,0.6505658626556396,3.8095641136169434,-4.244989395141602
1717013173556767000,25.95276708984375,1.0684657096862793,3.0174753665924072,-6.552933216094971
1717013173616764400,26.012764404296874,0.5118172764778137,5.568011283874512,-3.1194286346435547
1717013173676762000,26.07276220703125,-1.3092565536499023,6.493429183959961,-1.167963981628418
1717013173736759600,26.132759521484374,-3.0823662281036377,4.257755279541016,-2.849079132080078
1717013173796757200,26.19275732421875,1.6804624795913696,2.8698225021362305,-6.666402816772461
1717013173856754700,26.252754638671874,3.418091058731079,5.222332000732422,-3.265511989593506
1717013173916752100,26.312752197265624,-1.802842140197754,5.397607803344727,-5.536191940307617
1717013173976749800,26.372749755859374,-0.362224817276001,2.8549551963806152,-4.872406959533691
1717013174036747500,26.43274755859375,0.996159553527832,4.307420253753662,-3.6648645401000977
1717013174096745000,26.492744873046874,-4.638643741607666,2.9173197746276855,-5.205570220947266
1717013174156773000,26.552773193359375,-3.7511091232299805,1.101379156112671,-7.310426712036133
1717013174216770600,26.6127705078125,-3.5227715969085693,-0.1598219871520996,-4.998988151550293
1717013174276768300,26.672768310546875,-0.8654928207397461,-3.747647285461426,2.1375551223754883
1717013174336765700,26.732765625,-1.820824146270752,-3.297905445098877,5.835210800170898
1717013174396763400,26.792763427734375,-1.062822699546814,-2.3085553646087646,8.299945831298828
1717013174456760800,26.8527607421875,1.715341329574585,-3.4537973403930664,9.333518028259277
1717013174516758300,26.91275830078125,0.8453145027160645,-3.881491184234619,8.025787353515625
1717013174576756000,26.972755859375,-2.000308036804199,-1.9167790412902832,11.275619506835938
1717013174636753400,27.03275341796875,5.120659351348877,0.3533039093017578,8.956781387329102
1717013174696751000,27.092751220703125,-1.9795809984207153,4.959820747375488,9.377446174621582
1717013174756748800,27.152748779296875,-1.2957313060760498,6.3990092277526855,5.314100742340088
1717013174816746200,27.212746337890625,-5.482529163360596,9.028093338012695,2.9560768604278564
1717013174876560100,27.27256005859375,-1.4618769884109497,9.300542831420898,2.627079486846924
1717013174936772600,27.332772705078124,1.820554256439209,7.289356231689453,3.5335588455200195
1717013174996770000,27.39277001953125,-1.6694939136505127,3.7642574310302734,7.639307498931885
1717013175056767700,27.452767822265624,-4.116311073303223,0.4826774597167969,8.491641998291016
1717013175116765200,27.51276513671875,4.147729396820068,1.9492220878601074,3.998339891433716
1717013175176762600,27.5727626953125,0.611749529838562,1.7465229034423828,2.694736957550049
1717013175236760300,27.63276025390625,-3.437966823577881,1.0497865676879883,3.7590181827545166
1717013175296757800,27.6927578125,-1.4417998790740967,0.4589385986328125,3.0481090545654297
1717013175356755500,27.75275537109375,1.2802462577819824,0.8918333053588867,2.6041617393493652
1717013175416753200,27.812753173828124,0.30497077107429504,1.6407508850097656,2.517186403274536
1717013175476750600,27.87275048828125,-0.9567524194717407,2.8029327392578125,4.524056911468506
1717013175536748300,27.932748291015624,-2.1208114624023438,4.011693954467773,5.541646957397461
1717013175596745700,27.992745849609374,0.7165332436561584,4.167881965637207,6.356296539306641
1717013175656774000,28.05277392578125,2.2454216480255127,4.748381614685059,4.410377025604248
1717013175716771300,28.112771240234373,1.4125356674194336,5.863918304443359,3.788012742996216
1717013175776768800,28.172768798828123,-0.12109777331352234,7.329312324523926,4.883155822753906
1717013175836766500,28.232766357421873,0.6393225789070129,4.572201728820801,5.353228569030762
1717013175896764000,28.292763916015623,-0.5004132986068726,3.293186664581299,8.360406875610352
1717013175956761600,28.35276171875,-0.15565583109855652,-0.5244064331054688,6.495230197906494
1717013176016759000,28.412759033203123,1.9249271154403687,0.8155879974365234,5.346271514892578
1717013176076756500,28.472756591796873,-0.569917619228363,0.24941444396972656,7.017326354980469
1717013176136754400,28.53275439453125,-0.9996873736381531,-1.0950274467468262,7.661351203918457
1717013176196752000,28.592751953125,-1.5356727838516235,-1.4026312828063965,3.1301889419555664
1717013176256749300,28.652749267578123,-3.2729556560516357,-1.1770439147949219,3.482834815979004
1717013176316747000,28.7127470703125,-0.9529613256454468,-2.93701171875,3.783797264099121
1717013176376775000,28.77277490234375,1.857789397239685,-3.120365619659424,-1.8041839599609375
1717013176436772600,28.832772705078124,-0.6216349601745605,0.83150315284729,-3.3657660484313965
1717013176496770000,28.89277001953125,-2.8767800331115723,2.468677043914795,-3.995663642883301
1717013176556767700,28.952767822265624,3.067835569381714,2.845761299133301,-10.675883293151855
1717013176616765200,29.01276513671875,-2.1441121101379395,8.256439208984375,1.9476261138916016
1717013176676762600,29.0727626953125,-3.088094711303711,6.493378639221191,0.20502948760986328
1717013176736760300,29.13276025390625,-0.8838754892349243,3.193795680999756,-3.7492666244506836
1717013176796757800,29.1927578125,-0.022512197494506836,2.6538748741149902,-3.577688217163086
1717013176856755500,29.25275537109375,0.09851646423339844,1.894585132598877,-4.590197563171387
1717013176916753000,29.3127529296875,2.709207534790039,2.5220422744750977,-8.016368865966797
1717013176976750300,29.372750244140626,-2.070713996887207,4.027331352233887,-2.483646869659424
1717013177036748300,29.432748291015624,-2.579483985900879,3.7124569416046143,-1.906402587890625
1717013177096745700,29.492745849609374,0.15941071510314941,2.4617695808410645,-3.9887094497680664
1717013177156773600,29.552773681640623,-0.31948792934417725,2.463815927505493,-4.471685409545898
1717013177216771300,29.612771240234373,-0.3381056785583496,2.4225211143493652,-5.938717842102051
1717013177276768800,29.672768798828123,-0.8537334203720093,2.466033697128296,-6.6556830406188965
1717013177336766500,29.732766357421873,-1.4367308616638184,1.9713990688323975,-6.036643028259277
1717013177396764000,29.792763916015623,1.0399223566055298,1.0912578105926514,-7.792379379272461
1717013177456761600,29.85276171875,1.010523796081543,0.5978960990905762,-5.755197048187256
1717013177516759000,29.912759033203123,-0.6185802221298218,-0.8819208145141602,-2.5983290672302246
1717013177576756500,29.972756591796873,-1.1749645471572876,-1.9846242666244507,5.890303611755371
1717013177636754200,30.032754150390623,0.27870357036590576,-3.8384757041931152,6.741619110107422
1717013177696751600,30.092751708984373,1.0385364294052124,-4.561167240142822,5.050511360168457
1717013177756749300,30.152749267578123,-2.4127094745635986,-4.304232597351074,9.07674789428711
1717013177816747000,30.2127470703125,-2.1078314781188965,-3.2238330841064453,5.929860591888428
1717013177876775000,30.27277490234375,-4.781099796295166,-2.0379748344421387,8.023750305175781
1717013177936772600,30.332772705078124,3.2034692764282227,-1.4893522262573242,6.304873943328857
1717013177996770000,30.39277001953125,-4.726560115814209,1.0022273063659668,6.648397922515869
1717013178056767700,30.452767822265624,-2.558065891265869,4.141144752502441,7.174493312835693
1717013178116765200,30.51276513671875,-5.844594955444336,6.378811359405518,6.601851463317871
1717013178176762600,30.5727626953125,-1.0478261709213257,7.3728742599487305,4.403411865234375
1717013178236760300,30.63276025390625,-0.9913029670715332,8.466560363769531,2.742025375366211
1717013178296757800,30.6927578125,-1.025354266166687,6.243466377258301,4.345931053161621
1717013178356755500,30.75275537109375,-3.9557838439941406,2.6367287635803223,5.091372966766357
1717013178416753200,30.812753173828124,-0.760330855846405,0.6331472396850586,3.2948405742645264
1717013178476750600,30.87275048828125,3.5616040229797363,2.3129377365112305,2.7154345512390137
1717013178536748300,30.932748291015624,0.4016565680503845,1.5965814590454102,2.9195902347564697
1717013178596745700,30.992745849609374,-1.8334195613861084,0.6648826599121094,2.392336845397949
1717013178656774000,31.05277392578125,0.8601946830749512,0.25057029724121094,0.6296877861022949
1717013178716771300,31.112771240234373,1.4958704710006714,0.7028675079345703,0.6206474304199219
1717013178776768800,31.172768798828123,-0.0009480863809585571,2.2877068519592285,2.047154426574707
1717013178836766500,31.232766357421873,-1.034984827041626,3.232367515563965,4.64672327041626
1717013178896764000,31.292763916015623,0.6915133595466614,3.0510878562927246,5.299558639526367
1717013178956761600,31.35276171875,1.6073522567749023,4.433943748474121,7.082180500030518
1717013179016759000,31.412759033203123,1.7480695247650146,4.425687789916992,8.018778800964355
1717013179076756500,31.472756591796873,0.6734955310821533,3.9665122032165527,8.395642280578613
1717013179136754400,31.53275439453125,0.751176118850708,3.247373580932617,7.011833667755127
1717013179196752000,31.592751953125,0.5379834175109863,2.4851789474487305,5.275588035583496
1717013179256749300,31.652749267578123,0.5927332639694214,1.747746467590332,3.1193056106567383
1717013179316747000,31.7127470703125,0.14644144475460052,0.5783414840698242,2.4210267066955566
1717013179376775000,31.77277490234375,0.38197219371795654,-1.0378594398498535,1.8873481750488281
1717013179436772600,31.832772705078124,0.568775475025177,-0.9405393600463867,1.5449466705322266
1717013179496770000,31.89277001953125,-0.2691739797592163,-2.163365125656128,-0.7233562469482422
1717013179556767700,31.952767822265624,0.7134381532669067,-2.2970027923583984,-1.8214225769042969
1717013179616765200,32.01276513671875,-1.0690152645111084,-1.5894205570220947,-1.8029870986938477
1717013179676762600,32.0727626953125,1.3134429454803467,-1.5641391277313232,-2.1619105339050293
1717013179736760300,32.13276025390625,-0.6171324253082275,-4.836489200592041,-3.6488051414489746
1717013179796757800,32.1927578125,1.6484447717666626,0.621078610420227,-3.5142478942871094
1717013179856755500,32.25275537109375,-5.021510601043701,3.213022470474243,2.8695669174194336
1717013179916753000,32.3127529296875,0.30881452560424805,7.604881286621094,0.5034542083740234
1717013179976750300,32.372750244140626,0.22677183151245117,3.8677284717559814,-6.677634239196777
1717013180036748300,32.43274829101563,-2.750919818878174,5.223572254180908,1.1894989013671875
1717013180096745700,32.49274584960938,-0.541831374168396,5.930150032043457,0.5822620391845703
1717013180156773600,32.55277368164062,-1.5475317239761353,3.654005527496338,-1.1202306747436523
1717013180216771300,32.61277124023437,-0.893263578414917,3.1150965690612793,-0.8324747085571289
1717013180276768800,32.67276879882812,0.680986762046814,3.1507534980773926,-3.9864940643310547
1717013180336766500,32.73276635742187,0.5642051696777344,3.066956043243408,-3.957447052001953
1717013180396764000,32.79276391601562,2.5755035877227783,3.9426584243774414,-4.7325968742370605
1717013180456761600,32.85276171875,-1.5568078756332397,4.379247665405273,-0.7223625183105469
1717013180516759000,32.91275903320312,-0.16386008262634277,2.925956964492798,-3.0339999198913574
1717013180576756500,32.97275659179687,-0.7376065254211426,2.4919168949127197,-3.562502384185791
1717013180636754200,33.03275415039062,-0.4658219814300537,2.8681464195251465,-1.7958335876464844
1717013180696751600,33.09275170898437,0.29088377952575684,3.0621838569641113,-2.115354537963867
1717013180756749300,33.15274926757812,1.254969835281372,2.3707425594329834,-4.872150897979736
1717013180816747000,33.2127470703125,-0.139989972114563,2.1811375617980957,-6.114067554473877
1717013180876775000,33.27277490234375,1.1445529460906982,1.8262274265289307,-4.413460731506348
1717013180936772600,33.33277270507813,-1.9333674907684326,1.544935703277588,-6.490653038024902
1717013180996770000,33.39277001953125,-0.8079321384429932,0.319779634475708,-9.352128982543945
1717013181056767700,33.45276782226563,-0.4732242822647095,-1.3083850145339966,-3.745577335357666
1717013181116765200,33.51276513671875,0.4194207191467285,-3.130615472793579,2.932474136352539
1717013181176762600,33.5727626953125,0.5417500734329224,-4.9739484786987305,5.529125213623047
1717013181236760300,33.63276025390625,-2.4497971534729004,-2.6856958866119385,8.165642738342285
1717013181296757800,33.6927578125,-2.2388651371002197,-0.38559484481811523,9.647136688232422
1717013181356755500,33.75275537109375,-2.70259428024292,-1.8608083724975586,5.557785987854004
1717013181416753200,33.81275317382813,-0.5591021776199341,-2.365200996398926,4.099014759063721
1717013181476750600,33.87275048828125,-2.0555202960968018,-1.4859843254089355,3.012866973876953
1717013181536748300,33.93274829101563,-5.754298210144043,0.5214457511901855,5.694126129150391
1717013181596745700,33.99274584960938,-3.8332927227020264,2.6570191383361816,1.029158592224121
1717013181656773600,34.05277368164062,-4.105057239532471,5.614459991455078,2.289952278137207
1717013181716771300,34.11277124023437,-2.9402127265930176,5.545413970947266,0.1045684814453125
1717013181776768800,34.17276879882812,0.918278694152832,5.277764320373535,-1.8596742153167725
1717013181836766500,34.23276635742187,1.0838268995285034,4.898629188537598,-0.22374343872070312
1717013181896764000,34.29276391601562,-1.859453558921814,3.0285239219665527,2.6926817893981934
1717013181956761600,34.35276171875,-3.189563035964966,0.8868184089660645,4.213047504425049
1717013182016759000,34.41275903320312,2.153071403503418,1.529038906097412,3.3683669567108154
1717013182076756500,34.47275659179687,0.972911536693573,2.2848801612854004,4.479273796081543
1717013182136754400,34.53275439453125,-3.646071195602417,1.7636685371398926,2.361693859100342
1717013182196752000,34.592751953125,-2.7445805072784424,1.1013622283935547,2.3223910331726074
1717013182256749300,34.65274926757812,0.08591711521148682,1.4657011032104492,2.790743827819824
1717013182316747000,34.7127470703125,-1.375309944152832,3.136767864227295,3.6831817626953125
1717013182376775000,34.77277490234375,-0.8218132257461548,3.245208740234375,5.25949764251709
1717013182436772600,34.83277270507813,0.060406267642974854,3.888123035430908,4.8210906982421875
1717013182496770000,34.89277001953125,1.9610662460327148,5.025223731994629,5.65203857421875
1717013182556767700,34.95276782226563,1.7268669605255127,5.2956037521362305,5.902146816253662
1717013182616765200,35.01276513671875,1.827850341796875,5.079894065856934,4.0985822677612305
1717013182676762600,35.0727626953125,1.1749614477157593,3.665034770965576,3.873748779296875
1717013182736760300,35.13276025390625,-0.1543453335762024,0.5227375030517578,5.633963108062744
1717013182796757800,35.1927578125,-0.541424036026001,-1.6322674751281738,5.459664821624756
1717013182856755500,35.25275537109375,0.05897653102874756,-2.9401159286499023,3.6556129455566406
1717013182916753000,35.3127529296875,0.9281365871429443,-3.9082767963409424,-0.15314865112304688
1717013182976750300,35.372750244140626,-0.22203993797302246,-3.7285823822021484,-0.8164386749267578
1717013183036748300,35.43274829101563,0.7675795555114746,-4.249638080596924,-1.9461212158203125
1717013183096745700,35.49274584960938,0.44702309370040894,-3.293189525604248,-2.6436591148376465
1717013183156773600,35.55277368164062,-0.23709726333618164,-1.2857916355133057,1.092778205871582
1717013183216771300,35.61277124023437,-2.100022315979004,-0.167172372341156,2.744692802429199
1717013183276769000,35.67276904296875,-0.26495862007141113,1.2675666809082031,0.7457771301269531
1717013183336766500,35.73276635742187,-4.362593650817871,3.6470885276794434,-3.10695219039917
1717013183396764000,35.79276391601562,-1.75938081741333,2.226132869720459,-3.73233699798584
1717013183456761600,35.85276171875,-0.5717868804931641,3.480372190475464,-0.07598590850830078
1717013183516759000,35.91275903320312,-1.3432172536849976,3.7135558128356934,-1.3748021125793457
1717013183576756500,35.97275659179687,-1.7401175498962402,2.633894443511963,0.20865345001220703
1717013183636754200,36.03275415039062,0.0853571891784668,1.7622275352478027,-2.8764472007751465
1717013183696751600,36.09275170898437,0.12041270732879639,2.345170497894287,-0.6299114227294922
1717013183756749300,36.15274926757812,-1.4645519256591797,1.54791259765625,-3.8771042823791504
1717013183816747000,36.2127470703125,-1.9226410388946533,2.77091908454895,-1.4581456184387207
1717013183876775000,36.27277490234375,-4.305896282196045,1.8719944953918457,-2.45404052734375
1717013183936772600,36.33277270507813,-0.5003434419631958,1.3310770988464355,-2.55319881439209
1717013183996770000,36.39277001953125,-2.180675506591797,1.0370030403137207,-2.6014232635498047
1717013184056767700,36.45276782226563,-1.5549737215042114,1.5723066329956055,-1.1838092803955078
1717013184116765200,36.51276513671875,-2.5720996856689453,1.6431095600128174,-1.0642929077148438
1717013184176762600,36.5727626953125,0.027193069458007812,0.049800872802734375,0.07200241088867188
1717013184236760300,36.63276025390625,-0.3579709529876709,-0.21275091171264648,-0.7878093719482422
1717013184296757800,36.6927578125,0.039977073669433594,-0.8965349197387695,-2.8025031089782715
1717013184356755500,36.75275537109375,-1.3629686832427979,-1.7153661251068115,-3.739968776702881
1717013184416753000,36.8127529296875,-1.4104886054992676,-2.618957996368408,-5.996326446533203
1717013184476750300,36.872750244140626,-0.9313599467277527,-3.953691005706787,-7.7996625900268555
1717013184536748300,36.93274829101563,1.9658839702606201,-6.642398834228516,-5.968683242797852
1717013184596745700,36.99274584960938,4.479454517364502,-7.670541763305664,2.915447235107422
1717013184656773600,37.05277368164062,6.25994348526001,-8.553840637207031,6.251153945922852
1717013184716771300,37.11277124023437,5.803282737731934,-7.874845504760742,7.497384071350098
1717013184776769000,37.17276904296875,1.2027620077133179,-6.528430938720703,7.76747989654541
1717013184836766500,37.23276635742187,0.818518877029419,-7.24923038482666,1.3938894271850586
1717013184896764000,37.29276391601562,2.185518503189087,-6.411545753479004,10.914145469665527
1717013184956761600,37.35276171875,3.8328609466552734,-5.499234676361084,3.8876657485961914
1717013185016759000,37.41275903320312,-1.3911375999450684,-3.362830638885498,3.0896239280700684
1717013185076756500,37.47275659179687,5.582163333892822,-1.5664892196655273,1.1583943367004395
1717013185136754200,37.53275415039062,-2.597115993499756,2.9290478229522705,-0.19022274017333984
1717013185196751600,37.59275170898437,-1.3801684379577637,5.767980575561523,-2.6143741607666016
1717013185256749600,37.65274951171875,-1.6072545051574707,5.974865913391113,-7.9997382164001465
1717013185316747000,37.7127470703125,3.6032567024230957,4.4814558029174805,-2.367187976837158
1717013185376775000,37.77277490234375,1.7959809303283691,-1.0316228866577148,5.222829818725586
1717013185436772600,37.83277270507813,-0.532072126865387,-1.3061285018920898,3.800903797149658
1717013185496770000,37.89277001953125,4.690033912658691,0.326690673828125,-0.40797853469848633
1717013185556767700,37.95276782226563,1.2791180610656738,0.33623838424682617,-1.7370848655700684
1717013185616765200,38.01276513671875,-1.8295342922210693,-1.07393217086792,-1.591451644897461
1717013185676762600,38.0727626953125,-1.7523738145828247,-0.6640186309814453,0.6807799339294434
1717013185736760300,38.13276025390625,0.4926917552947998,0.9723215103149414,-0.5976424217224121
1717013185796757800,38.1927578125,-0.3302127718925476,1.3963384628295898,1.8363652229309082
1717013185856755500,38.25275537109375,-0.2325543761253357,1.6360368728637695,1.307591438293457
1717013185916770600,38.3127705078125,0.8599234819412231,2.7718210220336914,0.4109463691711426
1717013185976768300,38.372768310546874,1.4379513263702393,3.793990135192871,0.7992897033691406
1717013186036766000,38.432765869140624,1.4377076625823975,1.6572279930114746,3.34920072555542
1717013186096763400,38.492763427734374,2.0663747787475586,-0.6126713752746582,5.168739318847656
1717013186156791600,38.55279150390625,1.4188339710235596,-2.9875588417053223,2.192723274230957
1717013186216789000,38.6127890625,1.4423545598983765,-5.16288948059082,0.36435508728027344
1717013186276786700,38.67278662109375,-0.3873562812805176,-5.60256290435791,2.4606800079345703
1717013186336784100,38.7327841796875,0.8603016138076782,-6.730062484741211,1.022928237915039
1717013186396781800,38.79278173828125,1.8705565929412842,-7.052343845367432,-0.7633810043334961
1717013186456779300,38.852779296875,0.6248070001602173,-7.7656569480896,-0.24774551391601562
1717013186516776700,38.91277661132813,1.060346007347107,-4.853328704833984,-2.1782212257385254
1717013186576774400,38.9727744140625,-1.7462852001190186,-5.328132629394531,2.3542375564575195
1717013186636771800,39.03277172851563,-0.5746865272521973,-3.1472668647766113,2.373225212097168
1717013186696769500,39.09276953125,0.4222860336303711,-2.64200758934021,-3.382272720336914
1717013186756767200,39.15276733398437,1.1141852140426636,0.7418556213378906,-0.7585673332214355
1717013186816764700,39.2127646484375,-0.5976836681365967,2.061896324157715,0.5097389221191406
1717013186876792800,39.272792724609374,-1.7801005840301514,2.4765076637268066,3.4126272201538086
1717013186936790300,39.332790283203124,0.33093762397766113,1.125805377960205,0.3422212600708008
1717013186996788000,39.3927880859375,0.3212251663208008,-0.2553863525390625,-0.5974183082580566
1717013187056785400,39.452785400390624,1.1519229412078857,-0.7092733383178711,-1.838277816772461
1717013187116782800,39.512782958984374,2.0099854469299316,-0.5790982246398926,-2.7349724769592285
1717013187176780500,39.572780517578124,0.7693459987640381,0.26530981063842773,0.16717910766601562
1717013187236778000,39.632778076171874,-0.2742016315460205,0.07831859588623047,0.9850482940673828
1717013187296775700,39.692775634765624,1.441267490386963,-0.7245907783508301,-0.765204906463623
1717013187356773000,39.752773193359374,1.229675054550171,-1.0478038787841797,-1.3719654083251953
1717013187416770800,39.812770751953124,0.46445536613464355,-0.9044055938720703,-1.1676483154296875
1717013187476768300,39.872768310546874,-1.0091023445129395,-0.6685681343078613,-1.3244118690490723
1717013187536766000,39.932765869140624,0.30773448944091797,-0.3088798522949219,-1.6441073417663574
1717013187596763400,39.992763427734374,0.8840216398239136,-1.2246088981628418,-3.3044190406799316
1717013187656791600,40.05279150390625,1.4124491214752197,-1.6921272277832031,-4.523780822753906
1717013187716789000,40.1127890625,0.9095814228057861,-2.767768383026123,-5.4896135330200195
1717013187776786700,40.17278662109375,1.3545652627944946,-3.1263856887817383,-4.750388145446777
1717013187836784000,40.2327841796875,0.7179418802261353,-4.113329887390137,-1.538724422454834
1717013187896781800,40.29278173828125,1.5203734636306763,-5.135143280029297,1.755096435546875
1717013187956779300,40.352779296875,0.5566236972808838,-8.929173469543457,6.082315444946289
1717013188016776700,40.41277661132813,0.742850661277771,-10.78593921661377,5.209867477416992
1717013188076774400,40.4727744140625,-1.7871360778808594,-9.264392852783203,5.284123420715332
1717013188136771800,40.53277172851563,1.9425983428955078,-9.6746826171875,4.082326889038086
1717013188196769500,40.59276953125,-4.16047477722168,-6.8992438316345215,8.07288646697998
1717013188256767200,40.65276733398437,2.866044044494629,-4.782093524932861,9.04817008972168
1717013188316764700,40.7127646484375,1.3708412647247314,-1.9903936386108398,5.250187873840332
1717013188376792800,40.772792724609374,-0.17715096473693848,1.5919408798217773,5.030350685119629
1717013188436790300,40.832790283203124,-1.3749767541885376,4.700145244598389,2.2627382278442383
1717013188496788000,40.8927880859375,3.6658642292022705,6.415439128875732,-0.7181606292724609
1717013188556785400,40.952785400390624,2.5456418991088867,7.193854331970215,-1.448526382446289
1717013188616782800,41.012782958984374,-1.3215999603271484,7.086048126220703,-2.2393534183502197
1717013188676780500,41.072780517578124,-1.127042293548584,3.8239176273345947,-1.3315505981445312
1717013188736778000,41.132778076171874,-3.4301834106445312,-4.531918048858643,3.740546226501465
1717013188796775700,41.192775634765624,5.049981594085693,-2.9936141967773438,-0.770143985748291
1717013188856773000,41.252773193359374,3.8416268825531006,-0.9502444267272949,-4.735048294067383
1717013188916770800,41.312770751953124,-4.01248025894165,-2.1154794692993164,-3.4969310760498047
1717013188976768300,41.372768310546874,-1.1468980312347412,-2.1509952545166016,-1.4622464179992676
1717013189036766000,41.432765869140624,1.5943944454193115,-0.5941371917724609,-0.6098237037658691
1717013189096763400,41.492763427734374,-1.463860273361206,0.949103832244873,0.4196133613586426
1717013189156791600,41.55279150390625,-1.5842256546020508,1.6768150329589844,2.684260368347168
1717013189216789000,41.6127890625,1.005823016166687,1.352078914642334,2.545624256134033
1717013189276786700,41.67278662109375,6.188875198364258,2.808042049407959,2.3131790161132812
1717013189336784100,41.7327841796875,4.323564529418945,4.0226335525512695,0.2838129997253418
1717013189396781800,41.79278173828125,1.3765333890914917,4.026124000549316,-0.7089996337890625
1717013189456779300,41.852779296875,-0.4351344108581543,1.1740827560424805,2.2659192085266113
1717013189516776700,41.91277661132813,1.5130863189697266,-1.9691553115844727,4.16326904296875
1717013189576774400,41.9727744140625,0.6442863941192627,-3.4703726768493652,3.370558738708496
1717013189636771800,42.03277172851563,-1.5616806745529175,-4.73814582824707,1.7290925979614258
1717013189696769500,42.09276953125,0.03417813777923584,-4.8349809646606445,1.2815866470336914
1717013189756767200,42.15276733398437,-0.7193986177444458,-5.410445213317871,2.0856361389160156
1717013189816764700,42.2127646484375,-0.0952911376953125,-6.621819496154785,4.192177772521973
1717013189876792800,42.272792724609374,0.284701943397522,-6.055543422698975,3.32711124420166
1717013189936790300,42.332790283203124,0.6405448913574219,-5.5424041748046875,1.021921157836914
1717013189996788000,42.3927880859375,-1.6231613159179688,-2.7523672580718994,1.0779962539672852
1717013190056785400,42.452785400390624,0.23567509651184082,-2.2144880294799805,-2.913097381591797
1717013190116782800,42.512782958984374,1.848317265510559,-1.370218276977539,-7.4894118309021
1717013190176780500,42.572780517578124,-2.6645705699920654,1.9591584205627441,-1.3866219520568848
1717013190236778000,42.632778076171874,-2.914003610610962,2.293740749359131,1.8892192840576172
1717013190296775700,42.692775634765624,0.10680735111236572,0.6376128196716309,0.8496761322021484
1717013190356773000,42.752773193359374,1.816144585609436,-0.6236348152160645,-1.516831874847412
1717013190416770800,42.812770751953124,0.2468796968460083,-1.3451833724975586,-0.7462515830993652
1717013190476768300,42.872768310546874,2.160414457321167,-0.01513528823852539,-3.70056414604187
1717013190536766000,42.932765869140624,0.08175992965698242,0.8197793960571289,1.9202284812927246
1717013190596763400,42.992763427734374,-1.13687002658844,0.45564794540405273,-0.4659862518310547
1717013190656791600,43.05279150390625,0.7858178615570068,-0.7138214111328125,-0.7094674110412598
1717013190716789000,43.1127890625,0.13528293371200562,-1.3953442573547363,-1.2124085426330566
1717013190776786700,43.17278662109375,1.504704475402832,-0.5453386306762695,-0.10813188552856445
1717013190836784000,43.2327841796875,0.7348165512084961,0.48406219482421875,-3.0507938861846924
1717013190896781800,43.29278173828125,2.1106953620910645,-0.4390101432800293,-2.3658089637756348
1717013190956779300,43.352779296875,-1.182259202003479,0.22505998611450195,-1.075347900390625
1717013191016776700,43.41277661132813,-1.8188397884368896,-1.1647710800170898,-5.8741888999938965
1717013191076774400,43.4727744140625,-2.232347011566162,-2.543097496032715,-6.340488433837891
1717013191136771800,43.53277172851563,0.7664672136306763,-3.8563618659973145,-2.5192818641662598
1717013191196769500,43.59276953125,-0.7026801109313965,-3.2662062644958496,3.0539941787719727
1717013191256767200,43.65276733398437,1.6042752265930176,-5.573767185211182,7.9655961990356445
1717013191316764700,43.7127646484375,1.1616103649139404,-6.526791095733643,3.4892311096191406
1717013191376792800,43.772792724609374,0.220292866230011,-5.948849201202393,6.191353797912598
1717013191436790300,43.832790283203124,-0.581555962562561,-6.612106800079346,3.579355239868164
1717013191496788000,43.8927880859375,1.9595763683319092,-6.278036594390869,0.5531978607177734
1717013191556785400,43.952785400390624,-1.3332009315490723,-4.427106857299805,6.560793876647949
1717013191616782800,44.012782958984374,2.0170559883117676,-2.6242380142211914,3.743807792663574
1717013191676780500,44.072780517578124,0.23100417852401733,0.3631267547607422,2.904308319091797
1717013191736778000,44.132778076171874,1.2859833240509033,2.1418519020080566,-0.7471308708190918
1717013191796775700,44.192775634765624,-1.339676856994629,4.595271110534668,-2.749650001525879
1717013191856773000,44.252773193359374,0.5968331098556519,4.739435195922852,-5.5461745262146
1717013191916770800,44.312770751953124,0.2660199999809265,3.6642136573791504,-1.5924901962280273
1717013191976768300,44.372768310546874,-0.779319703578949,-0.9849700927734375,2.8989086151123047
1717013192036766000,44.432765869140624,4.745303630828857,0.4723696708679199,5.7770891189575195
1717013192096763400,44.492763427734374,3.0120413303375244,1.2925763130187988,2.7771453857421875
1717013192156791600,44.55279150390625,-4.103887557983398,1.055002212524414,-2.6746742725372314
1717013192216789000,44.6127890625,-1.7274580001831055,0.6293215751647949,0.6156558990478516
1717013192276786700,44.67278662109375,1.0157347917556763,0.43478965759277344,0.5943427085876465
1717013192336784100,44.7327841796875,1.95438814163208,1.8891654014587402,4.203943252563477
1717013192396781800,44.79278173828125,1.1387035846710205,2.064605236053467,4.371694564819336
1717013192456779300,44.852779296875,0.6565887331962585,1.3133535385131836,3.988339900970459
1717013192516776700,44.91277661132813,1.3180290460586548,0.040801048278808594,3.1453704833984375
1717013192576774400,44.9727744140625,1.237019658088684,-1.0587029457092285,2.828207015991211
1717013192636771800,45.03277172851563,0.8206722736358643,-1.5350303649902344,2.6885786056518555
1717013192696769500,45.09276953125,0.7507938146591187,-2.2928545475006104,0.2984437942504883
1717013192756767200,45.15276733398437,0.2300649881362915,-4.856383800506592,0.1089010238647461
1717013192816764700,45.2127646484375,1.7089182138442993,-6.495267868041992,-1.2806739807128906
1717013192876792800,45.272792724609374,1.4837638139724731,-6.245395660400391,-1.8827571868896484
1717013192936790300,45.332790283203124,0.3990209102630615,-4.841341972351074,0.0978231430053711
1717013192996788000,45.3927880859375,-0.8266850709915161,-5.685995101928711,-0.29670047760009766
1717013193056785400,45.452785400390624,0.5702513456344604,-5.7975568771362305,-0.6094527244567871
1717013193116782800,45.512782958984374,-1.7321066856384277,-5.108649730682373,0.5483617782592773
1717013193176780500,45.572780517578124,0.5932049751281738,-3.761943817138672,0.44310665130615234
1717013193236778000,45.632778076171874,-5.601314544677734,2.080571174621582,1.9967107772827148
1717013193296775700,45.692775634765624,3.725879430770874,0.7734622955322266,-3.0244641304016113
1717013193356773000,45.752773193359374,1.1206706762313843,-1.0835514068603516,-5.294355869293213
1717013193416770800,45.812770751953124,-4.258433818817139,2.792426586151123,4.558597087860107
1717013193476768300,45.872768310546874,0.40361344814300537,3.5070114135742188,4.185235023498535
1717013193536766000,45.932765869140624,0.6208639740943909,1.2494721412658691,2.2635889053344727
1717013193596763400,45.992763427734374,1.3816356658935547,-0.410158634185791,-0.5953235626220703
1717013193656791600,46.05279150390625,1.2019360065460205,-1.0098958015441895,-0.8948822021484375
1717013193716789000,46.1127890625,2.744365930557251,-0.3401813507080078,-3.485799789428711
1717013193776786700,46.17278662109375,-0.7970681190490723,1.5020570755004883,0.8967242240905762
1717013193836784000,46.2327841796875,0.2703869342803955,0.7199020385742188,1.230806827545166
1717013193896781800,46.29278173828125,1.8271797895431519,-0.5767703056335449,-0.7886509895324707
1717013193956779300,46.352779296875,0.37931495904922485,-0.7827548980712891,-1.708456039428711
1717013194016776700,46.41277661132813,-0.10101175308227539,-0.4730653762817383,-1.0145373344421387
1717013194076774400,46.4727744140625,0.8867887258529663,-0.0006079673767089844,-2.213778018951416
1717013194136771800,46.53277172851563,-0.7927905321121216,0.9587874412536621,-0.015531063079833984
1717013194196769500,46.59276953125,0.6555185317993164,0.18642044067382812,-1.8391718864440918
1717013194256767200,46.65276733398437,1.529026985168457,-0.8849043846130371,-3.7822794914245605
1717013194316764700,46.7127646484375,0.9036159515380859,-1.2749319076538086,-5.514798641204834
1717013194376792800,46.772792724609374,-0.43190503120422363,-1.9594411849975586,-3.650639533996582
1717013194436790300,46.832790283203124,0.5098568201065063,-4.18897008895874,-2.027505874633789
1717013194496788000,46.8927880859375,-0.07872343063354492,-7.507240295410156,1.3904743194580078
1717013194556785400,46.952785400390624,1.3490017652511597,-8.918211936950684,4.486936569213867
1717013194616782800,47.012782958984374,0.925137460231781,-8.288999557495117,6.934195518493652
1717013194676780500,47.072780517578124,0.892224133014679,-9.599247932434082,4.245272636413574
1717013194736778000,47.132778076171874,0.0017805099487304688,-8.232775688171387,4.688959121704102
1717013194796775700,47.192775634765624,-1.5171809196472168,-6.065810203552246,9.161980628967285
1717013194856773000,47.252773193359374,-7.251214504241943,-4.0892157554626465,4.405599594116211
1717013194916770800,47.312770751953124,3.8563170433044434,-3.153567314147949,5.181927680969238
1717013194976768300,47.372768310546874,-2.287181854248047,0.518486499786377,1.9570245742797852
1717013195036766000,47.432765869140624,-2.174466609954834,4.195669651031494,0.726254940032959
1717013195096763400,47.492763427734374,-1.9681835174560547,6.667355537414551,-0.2058730125427246
1717013195156791600,47.55279150390625,0.2852460741996765,6.815124034881592,-1.3123292922973633
1717013195216789000,47.6127890625,0.8721937537193298,4.704354763031006,-1.3866558074951172
1717013195276786700,47.67278662109375,-0.31885260343551636,-1.4125828742980957,1.267834186553955
1717013195336784100,47.7327841796875,3.2825403213500977,-1.6727685928344727,-1.1411385536193848
1717013195396781800,47.79278173828125,6.140321254730225,0.3859877586364746,0.010228157043457031
1717013195456779300,47.852779296875,-1.7004683017730713,-1.142056941986084,-1.7753334045410156
1717013195516776700,47.91277661132813,-2.4951059818267822,-1.3024992942810059,-0.5643119812011719
1717013195576774400,47.9727744140625,1.3910248279571533,-0.891045093536377,-0.41200923919677734
1717013195636771800,48.03277172851563,-0.2735159397125244,0.6213326454162598,-1.2620668411254883
1717013195696769500,48.09276953125,-1.4632834196090698,1.0577216148376465,0.9381904602050781
1717013195756767200,48.15276733398437,0.10881927609443665,1.1933860778808594,2.7384047508239746
1717013195816764700,48.2127646484375,2.281629800796509,1.4996843338012695,4.106080055236816
1717013195876792800,48.272792724609374,0.5741512775421143,2.0865602493286133,5.060257911682129
1717013195936790300,48.332790283203124,-0.8540881872177124,1.4642858505249023,4.387626647949219
1717013195996788000,48.3927880859375,0.6116116046905518,0.055124759674072266,1.653228759765625
1717013196056785400,48.452785400390624,0.7218857407569885,-2.107936382293701,-0.4662284851074219
1717013196116783000,48.512783203125,0.5350526571273804,-2.1425769329071045,-0.3420267105102539
1717013196176780500,48.572780517578124,0.3629295825958252,-2.906792402267456,-0.6598873138427734
1717013196236778000,48.632778076171874,-0.2734487056732178,-4.328657150268555,0.010305404663085938
1717013196296775700,48.692775634765624,-0.26318979263305664,-4.4127116203308105,2.514934539794922
1717013196356773000,48.752773193359374,2.0032851696014404,-3.2583250999450684,0.20089244842529297
1717013196416770800,48.812770751953124,-0.6063257455825806,-5.854130744934082,-1.136765480041504
1717013196476768300,48.872768310546874,0.8067443370819092,-6.387343406677246,-1.301422119140625
1717013196536766000,48.932765869140624,1.8063772916793823,-6.779836654663086,2.7177000045776367
1717013196596763400,48.992763427734374,-0.6469278335571289,-3.8017759323120117,-0.3175210952758789
1717013196656791600,49.05279150390625,-4.570023536682129,-1.0672249794006348,0.9282026290893555
1717013196716789000,49.1127890625,-1.5040864944458008,0.7558598518371582,1.026057243347168
1717013196776786700,49.17278662109375,1.4954746961593628,0.40673112869262695,-2.3256349563598633
1717013196836784000,49.2327841796875,1.371016502380371,1.0020999908447266,-3.9975717067718506
1717013196896762400,49.292762451171875,-1.4557535648345947,3.0066070556640625,2.147512435913086
1717013196956759800,49.352759765625,0.5595832467079163,1.5561552047729492,0.4652986526489258
1717013197016757200,49.41275732421875,0.5901747941970825,0.05617570877075195,0.49849605560302734
1717013197076755000,49.4727548828125,0.7908124923706055,-0.4913768768310547,-2.625298500061035
1717013197136752400,49.53275244140625,0.9325911998748779,0.1197352409362793,-1.6682124137878418
1717013197196750000,49.59275,-0.1998579502105713,1.4504237174987793,0.8795270919799805
1717013197256747800,49.652747802734375,-0.2448129653930664,1.0940537452697754,0.9125480651855469
1717013197316745200,49.7127451171875,0.8286936283111572,-0.3699002265930176,-0.6668376922607422
1717013197376773400,49.7727734375,0.4807313084602356,-0.8472466468811035,-2.3144216537475586
1717013197436770800,49.83277075195313,0.6075800657272339,-0.849431037902832,-2.3260445594787598
1717013197496768500,49.8927685546875,0.24334406852722168,-0.7471418380737305,-3.447568893432617
1717013197556766000,49.95276586914063,-0.5022475719451904,-0.7749218940734863,-3.336421012878418
1717013197616763400,50.01276342773438,-0.0494464635848999,-0.21400165557861328,-2.89162540435791
1717013197676761000,50.07276098632813,0.6229062676429749,-0.3380470275878906,-4.4235687255859375
1717013197736758500,50.13275854492188,-0.5694196224212646,-1.5190892219543457,-4.897435665130615
1717013197796756200,50.19275610351563,0.2564666271209717,-3.736055374145508,-1.9424443244934082
1717013197856753700,50.25275366210938,0.9017717242240906,-6.76927375793457,4.129716873168945
1717013197916751400,50.31275146484375,2.064060688018799,-9.488103866577148,4.8292131423950195
1717013197976748800,50.37274877929688,-0.1474146842956543,-8.99160099029541,3.800395965576172
1717013198036746500,50.43274658203125,-3.47702956199646,-7.780837059020996,4.986041069030762
1717013198096744000,50.49274389648438,-3.55825138092041,-7.528957366943359,5.389675140380859
1717013198156772000,50.552772216796875,4.348431587219238,-6.7026166915893555,7.703919410705566
1717013198216769500,50.61276953125,-0.8830968141555786,-3.7708115577697754,6.1105804443359375
1717013198276767200,50.672767333984375,-1.2845184803009033,-1.1478204727172852,5.999342918395996
1717013198336764700,50.7327646484375,-0.47757136821746826,1.4089078903198242,2.780893325805664
1717013198396762400,50.792762451171875,0.025954484939575195,4.887789726257324,-1.0370149612426758
1717013198456759800,50.852759765625,1.2851210832595825,7.252472877502441,-1.9461135864257812
1717013198516757200,50.91275732421875,2.3434834480285645,7.2464776039123535,-3.1026647090911865
1717013198576755000,50.9727548828125,-0.1887783408164978,3.888782024383545,-1.6253108978271484
1717013198636752400,51.03275244140625,0.9204846024513245,-2.704782009124756,0.7713747024536133
1717013198696750000,51.09275,2.038179874420166,-0.38002443313598633,1.4535059928894043
1717013198756747800,51.152747802734375,0.7204325199127197,0.2556915283203125,-2.6150383949279785
1717013198816745200,51.2127451171875,-1.422922134399414,-0.8666009902954102,-1.6776061058044434
1717013198876773400,51.2727734375,-0.05820727348327637,-0.25502824783325195,0.8630132675170898
1717013198936770800,51.33277075195313,-0.1286678910255432,0.004889488220214844,0.7948389053344727
1717013198996768500,51.3927685546875,1.0644155740737915,2.816476821899414,2.034280300140381
1717013199056766000,51.45276586914063,0.7251280546188354,3.1883392333984375,3.178164005279541
1717013199116763400,51.51276342773438,-1.5407226085662842,3.7037765979766846,0.48565244674682617
1717013199176761000,51.57276098632813,-0.9167541265487671,4.034585952758789,-1.7400450706481934
1717013199236758500,51.63275854492188,-0.05335515737533569,2.1785168647766113,0.6153850555419922
1717013199296756200,51.69275610351563,1.0750380754470825,0.39751672744750977,4.909505844116211
1717013199356753700,51.75275366210938,2.1053969860076904,-2.7281007766723633,6.371630668640137
1717013199416751000,51.81275122070313,1.615992546081543,-4.676208019256592,5.113408088684082
1717013199476748800,51.87274877929688,-0.8855647444725037,-6.533029556274414,3.7895612716674805
1717013199536746500,51.93274658203125,-1.1803799867630005,-8.161458969116211,4.3600616455078125
1717013199596744000,51.99274389648438,-0.2939110994338989,-8.779605865478516,2.588777542114258
1717013199656772000,52.052772216796875,-0.16089963912963867,-8.190009117126465,1.6183576583862305
1717013199716769500,52.11276953125,-2.1339268684387207,-4.664926052093506,1.5672941207885742
1717013199776767200,52.172767333984375,-0.41612768173217773,-2.7217864990234375,-2.162877082824707
1717013199836764700,52.2327646484375,5.070438385009766,-3.178281307220459,-9.373520851135254
1717013199896762400,52.292762451171875,-0.359236478805542,-0.928159236907959,-2.450887680053711
1717013199956759800,52.352759765625,-0.3415834903717041,1.1527552604675293,-0.7416329383850098
1717013200016757200,52.41275732421875,-1.8043289184570312,0.2610812187194824,-0.3393373489379883
1717013200076755000,52.4727548828125,0.541522741317749,0.7074446678161621,-0.4420585632324219
1717013200136752400,52.53275244140625,0.3421061038970947,0.8757791519165039,0.07183647155761719
1717013200196750000,52.59275,1.716709852218628,-0.27744340896606445,-1.4163389205932617
1717013200256747800,52.652747802734375,0.7098464965820312,0.672813892364502,-1.139824390411377
1717013200316745200,52.7127451171875,-1.5909934043884277,0.9122953414916992,0.12972354888916016
1717013200376773400,52.7727734375,-0.16872620582580566,0.21770715713500977,-0.5690436363220215
1717013200436770800,52.83277075195313,0.7166402339935303,-0.6688776016235352,-2.1514739990234375
1717013200496768500,52.8927685546875,0.5011060237884521,-0.6259260177612305,-2.0631251335144043
1717013200556766000,52.95276586914063,0.8820161819458008,-0.31292200088500977,-3.4931583404541016
1717013200616763400,53.01276342773438,1.1455636024475098,0.3167266845703125,-2.7240567207336426
1717013200676761000,53.07276098632813,-0.5277419090270996,0.1379714012145996,-1.7804279327392578
1717013200736758500,53.13275854492188,0.23761940002441406,-2.170252799987793,-2.147111415863037
1717013200796756200,53.19275610351563,-0.03351163864135742,-5.492616653442383,-0.44196081161499023
1717013200856753700,53.25275366210938,5.125216484069824,-6.678741455078125,1.4149150848388672
1717013200916751400,53.31275146484375,-1.247910976409912,-4.877138137817383,7.231597900390625
1717013200976748800,53.37274877929688,-1.9249029159545898,-4.517940521240234,6.588850975036621
1717013201036746500,53.43274658203125,-3.601818561553955,-3.7430098056793213,5.434786796569824
1717013201096744000,53.49274389648438,-3.522481918334961,-3.572925567626953,4.224811553955078
1717013201156772000,53.552772216796875,2.38576340675354,-4.294400215148926,2.5791749954223633
1717013201216769500,53.61276953125,1.6947526931762695,-2.7007668018341064,-1.029198169708252
1717013201276767200,53.672767333984375,6.692361831665039,-3.5255188941955566,0.6230325698852539
1717013201336764700,53.7327646484375,-3.41900372505188,-0.3504188060760498,-2.70281982421875
1717013201396762400,53.792762451171875,3.407822847366333,-0.3027784824371338,-3.493915557861328
1717013201456759800,53.852759765625,-1.2700397968292236,0.15657377243041992,-3.657681465148926
1717013201516757200,53.91275732421875,0.8469003438949585,-0.5284247398376465,-3.7014694213867188
1717013201576755000,53.9727548828125,2.318939685821533,-3.6838974952697754,-0.8082103729248047
1717013201636752400,54.03275244140625,3.362617254257202,-2.8172760009765625,1.9699454307556152
1717013201696750000,54.09275,1.2771013975143433,2.3857269287109375,7.150955677032471
1717013201756747800,54.152747802734375,0.5457885265350342,2.0801596641540527,6.939888954162598
1717013201816745200,54.2127451171875,0.3728811740875244,0.2776966094970703,0.5805139541625977
1717013201876773400,54.2727734375,-1.4238498210906982,2.5186820030212402,-0.3015456199645996
1717013201936770800,54.33277075195313,-0.8272013664245605,2.177206039428711,4.198873519897461
1717013201996768500,54.3927685546875,-0.5656143426895142,1.6162877082824707,1.8846158981323242
1717013202056766000,54.45276586914063,3.1101973056793213,1.0950932502746582,2.192509174346924
1717013202116763400,54.51276342773438,2.6871957778930664,1.2825756072998047,1.2156529426574707
1717013202176761000,54.57276098632813,0.2893798351287842,2.893199920654297,0.7201309204101562
1717013202236758500,54.63275854492188,0.09846502542495728,3.3283026218414307,-0.24721527099609375
1717013202296756200,54.69275610351563,0.6704816818237305,0.8123984336853027,2.569467544555664
1717013202356753700,54.75275366210938,1.3666139841079712,-2.666843891143799,4.892455101013184
1717013202416751400,54.81275146484375,1.1373287439346313,-6.157380104064941,2.534369468688965
1717013202476748800,54.87274877929688,-1.0089367628097534,-6.252608299255371,1.406508445739746
1717013202536746500,54.93274658203125,0.03376495838165283,-6.3687357902526855,-0.5352382659912109
1717013202596744000,54.99274389648438,0.45412617921829224,-7.33206844329834,0.09212017059326172
1717013202656772000,55.052772216796875,-1.055506944656372,-6.465287208557129,1.7413225173950195
1717013202716769500,55.11276953125,-0.934439480304718,-5.735505104064941,1.5118370056152344
1717013202776767200,55.172767333984375,-2.6814513206481934,-6.5563859939575195,2.721364974975586
1717013202836764700,55.2327646484375,-0.9773024320602417,-1.2839009761810303,3.1417770385742188
1717013202896762400,55.292762451171875,-1.2182822227478027,-1.9222683906555176,-2.251953601837158
1717013202956759800,55.352759765625,4.652968406677246,-1.441826343536377,-11.407804489135742
1717013203016757200,55.41275732421875,-2.4657015800476074,2.944368362426758,6.042214870452881
1717013203076755000,55.4727548828125,-1.9313000440597534,1.2891998291015625,-3.2242212295532227
1717013203136752400,55.53275244140625,0.2820453643798828,0.12593698501586914,1.5127663612365723
1717013203196750000,55.59275,2.5424721240997314,-0.2588796615600586,-2.0762290954589844
1717013203256747800,55.652747802734375,1.0044382810592651,-0.2571897506713867,-0.654146671295166
1717013203316745200,55.7127451171875,1.8375638723373413,-0.15089654922485352,-3.131009101867676
1717013203376773400,55.7727734375,-1.2861814498901367,1.587751865386963,2.2608981132507324
1717013203436770800,55.83277075195313,-0.6985369920730591,0.04876708984375,-0.1713719367980957
1717013203496768500,55.8927685546875,0.4655728340148926,-1.0470075607299805,-1.6586956977844238
1717013203556766000,55.95276586914063,0.7066197991371155,-1.9617772102355957,-4.8435540199279785
1717013203616763400,56.01276342773438,1.1907330751419067,-2.572528839111328,-5.121706962585449
1717013203676761000,56.07276098632813,1.4641706943511963,-3.4089515209198,-4.576113700866699
1717013203736758500,56.13275854492188,2.4492034912109375,-3.8615832328796387,-7.056344509124756
1717013203796756200,56.19275610351563,-1.0266664028167725,-4.487562656402588,-5.684176921844482
1717013203856753700,56.25275366210938,-1.8701510429382324,-7.721539497375488,0.35006046295166016
1717013203916751400,56.31275146484375,-0.05550694465637207,-10.474931716918945,8.053492546081543
1717013203976748800,56.37274877929688,0.8390145301818848,-11.700733184814453,10.712824821472168
1717013204036746500,56.43274658203125,1.1988486051559448,-10.320013999938965,7.105301856994629
1717013204096744000,56.49274389648438,-2.71004056930542,-9.094073295593262,7.0493574142456055
1717013204156772000,56.552772216796875,-1.0925883054733276,-6.4806623458862305,7.787786483764648
1717013204216769500,56.61276953125,0.5880396366119385,-4.92071008682251,7.810966491699219
1717013204276767200,56.672767333984375,0.9169979691505432,-1.8868589401245117,7.064361095428467
1717013204336764700,56.7327646484375,1.5493448972702026,1.3171815872192383,5.89093017578125
1717013204396762400,56.792762451171875,-2.0590648651123047,4.3194732666015625,1.9472222328186035
1717013204456759800,56.852759765625,0.6922253370285034,5.756479740142822,-0.8707156181335449
1717013204516757200,56.91275732421875,-3.04976749420166,7.665648460388184,-1.9887795448303223
1717013204576755000,56.9727548828125,0.4589484930038452,6.864713668823242,-3.1554055213928223
1717013204636752400,57.03275244140625,2.4677841663360596,2.6616549491882324,-1.8378019332885742
1717013204696750000,57.09275,-3.485802173614502,-7.255525588989258,-0.7621045112609863
1717013204756747800,57.152747802734375,3.468018054962158,-1.1537675857543945,-1.8118486404418945
1717013204816745200,57.2127451171875,-0.8860165476799011,0.050164222717285156,-1.3281264305114746
1717013204876773400,57.2727734375,-2.5650391578674316,-2.5525808334350586,-4.480647087097168
1717013204936770800,57.33277075195313,1.9825222492218018,-2.1455883979797363,0.2384476661682129
1717013204996768500,57.3927685546875,-0.07818734645843506,-0.588505744934082,-1.0932393074035645
1717013205056766000,57.45276586914063,-1.403475046157837,1.0911650657653809,-0.07237100601196289
1717013205116763400,57.51276342773438,0.9295487403869629,1.53779935836792,0.13455820083618164
1717013205176761000,57.57276098632813,1.029139757156372,2.646487236022949,2.671170234680176
1717013205236758500,57.63275854492188,2.672579526901245,4.163482666015625,3.020913600921631
1717013205296756200,57.69275610351563,2.4362125396728516,4.158349990844727,-0.05218935012817383
1717013205356753700,57.75275366210938,0.7774486541748047,0.19553089141845703,0.2161245346069336
1717013205416751400,57.81275146484375,1.3810100555419922,-0.5654664039611816,3.421034812927246
1717013205476748800,57.87274877929688,2.1004600524902344,-3.4408187866210938,4.550625801086426
1717013205536746500,57.93274658203125,-0.19049572944641113,-6.198033809661865,0.5759315490722656
1717013205596744000,57.99274389648438,0.6624866127967834,-5.774001121520996,3.822390556335449
1717013205656772000,58.052772216796875,-0.7587199211120605,-6.5653815269470215,0.1331949234008789
1717013205716769500,58.11276953125,1.422173261642456,-6.562483787536621,1.39825439453125
1717013205776767200,58.172767333984375,-3.4381566047668457,-7.216037750244141,5.854859352111816
1717013205836764700,58.2327646484375,1.4045144319534302,-5.831578254699707,1.6133289337158203
1717013205896762400,58.292762451171875,-3.723573923110962,-4.828678607940674,-2.1091012954711914
1717013205956759800,58.352759765625,-1.5426298379898071,-2.931760311126709,-4.374584674835205
1717013206016757200,58.41275732421875,2.4437096118927,-0.9955954551696777,-9.187982559204102
1717013206076755000,58.4727548828125,-1.233974814414978,1.193476676940918,-1.8497419357299805
1717013206136752400,58.53275244140625,-2.0518951416015625,1.937906265258789,4.9331512451171875
1717013206196750000,58.59275,1.146998643875122,-0.3697547912597656,0.15272903442382812
1717013206256747800,58.652747802734375,2.1373884677886963,-0.5239043235778809,-0.23653364181518555
1717013206316745200,58.7127451171875,0.0986258015036583,-0.8405370712280273,-1.064173698425293
1717013206376773400,58.7727734375,1.923568606376648,-0.6646370887756348,-4.61887788772583
1717013206436770800,58.83277075195313,0.6311171054840088,0.9677543640136719,0.13395261764526367
1717013206496768500,58.8927685546875,-1.2580904960632324,0.9013156890869141,2.3647055625915527
1717013206556766000,58.95276586914063,0.16709201037883759,-1.068284034729004,-1.197319507598877
1717013206616763400,59.01276342773438,0.6137380599975586,-1.5649356842041016,-3.919086456298828
1717013206676761000,59.07276098632813,0.056671734899282455,-1.3274025917053223,-4.032159805297852
1717013206736758500,59.13275854492188,-0.5875339508056641,-1.0562047958374023,-4.809142112731934
1717013206796756200,59.19275610351563,-0.9210621118545532,-0.9163217544555664,-2.4727277755737305
1717013206856753700,59.25275366210938,0.31848961114883423,-1.4954633712768555,-4.831297874450684
1717013206916751400,59.31275146484375,-0.32826048135757446,-3.484384775161743,-3.9889631271362305
1717013206976748800,59.37274877929688,0.8024240732192993,-7.003809452056885,-1.9704632759094238
1717013207036746500,59.43274658203125,-1.1013047695159912,-10.438822746276855,6.228606224060059
1717013207096744000,59.49274389648438,0.9093325138092041,-12.291864395141602,2.6767587661743164
1717013207156772000,59.552772216796875,0.46457624435424805,-11.08462142944336,7.688539505004883
1717013207216769500,59.61276953125,-0.34280335903167725,-9.263562202453613,8.239019393920898
1717013207276767200,59.672767333984375,-3.3210716247558594,-8.156904220581055,7.064084053039551
1717013207336764700,59.7327646484375,7.216562747955322,-6.659069061279297,5.781927108764648
1717013207396762400,59.792762451171875,-5.8795366287231445,-1.9879422187805176,8.343021392822266
1717013207456759800,59.852759765625,-0.8523690700531006,0.7958402633666992,3.1482343673706055
1717013207516757200,59.91275732421875,0.9500666856765747,4.513708114624023,1.212122917175293
1717013207576755000,59.9727548828125,-0.935612678527832,7.82277250289917,-0.5616259574890137
1717013207636752400,60.03275244140625,-1.174715518951416,8.218829154968262,-1.6769442558288574
1717013207696750000,60.09275,0.006705638021230698,4.64393424987793,-2.5537476539611816
1717013207756747800,60.152747802734375,-1.2621026039123535,-1.287294864654541,1.0986623764038086
1717013207816745200,60.2127451171875,3.842282772064209,-2.551198959350586,1.9683527946472168
1717013207876773400,60.2727734375,2.545862913131714,0.03766441345214844,-2.257465362548828
1717013207937194000,60.33319409179688,-3.0287234783172607,-0.4595460891723633,-3.1317801475524902
1717013207997191700,60.39319165039063,-1.2095494270324707,-1.2484617233276367,-0.6676592826843262
1717013208057189000,60.45318920898438,0.7556675672531128,0.10063886642456055,1.0839858055114746
1717013208117186600,60.5131865234375,0.7791858315467834,1.6210918426513672,1.3715910911560059
1717013208177184300,60.57318432617188,0.45377254486083984,2.995975971221924,4.071736812591553
1717013208237181700,60.633181640625,1.2501380443572998,3.2571630477905273,5.290280342102051
1717013208297179400,60.69317944335938,1.348778486251831,4.034379005432129,2.363044261932373
1717013208357176800,60.7531767578125,0.8724468350410461,2.1658756732940674,0.0029191970825195312
1717013208417174500,60.81317456054688,0.27517709136009216,-2.0661072731018066,2.375406265258789
1717013208477172000,60.873171875,0.7792980074882507,-4.178709506988525,3.1956567764282227
1717013208537169700,60.93316967773438,1.5462621450424194,-6.302280902862549,2.058847427368164
1717013208597167000,60.9931669921875,-2.5058295726776123,-7.186357498168945,-0.07251262664794922
1717013208657195300,61.0531953125,1.6863369941711426,-7.827024459838867,0.2562847137451172
1717013208717192700,61.11319262695312,-1.6694833040237427,-6.55794095993042,2.0971078872680664
1717013208777190400,61.1731904296875,-0.40165936946868896,-6.779575347900391,0.3231639862060547
1717013208837187800,61.23318774414062,1.3878958225250244,-6.457745552062988,-0.7426176071166992
1717013208897185500,61.293185546875,-2.936495065689087,-2.0888285636901855,3.701913833618164
1717013208957183000,61.35318286132812,-1.898770809173584,-0.3926987648010254,0.0713191032409668
1717013209017180400,61.41318041992187,3.9312195777893066,-0.6702165603637695,-8.401269912719727
1717013209077178000,61.47317822265625,-3.835923433303833,2.393749237060547,3.890486717224121
1717013209137175600,61.53317553710937,-2.158827543258667,2.511955738067627,-0.05131721496582031
1717013209197173200,61.59317333984375,0.0206453800201416,0.020749568939208984,0.6589365005493164
1717013209257171000,61.6531708984375,2.462348222732544,-1.0706062316894531,-2.488280773162842
1717013209317168400,61.71316845703125,0.8477027416229248,-0.5218715667724609,-1.1889219284057617
1717013209377196500,61.77319653320313,2.804699659347534,-0.401123046875,-4.116846561431885
1717013209437194000,61.83319409179688,-1.685065746307373,1.1948857307434082,0.7958455085754395
1717013209497191400,61.89319140625,-3.1024208068847656,0.7949056625366211,0.47736215591430664
1717013209557189000,61.95318920898438,1.3439847230911255,-1.111438274383545,-2.6834335327148438
1717013209617186600,62.0131865234375,1.4400018453598022,-2.076878547668457,-5.5219035148620605
1717013209677184300,62.07318432617188,0.6143728494644165,-2.487046241760254,-6.210029602050781
1717013209737181700,62.133181640625,0.17508244514465332,-2.4010801315307617,-6.006218910217285
1717013209797179400,62.19317944335938,-0.2643892765045166,-1.7419142723083496,-2.9181976318359375
1717013209857176800,62.2531767578125,0.9209026098251343,-2.603698492050171,-2.914567470550537
1717013209917174500,62.31317456054688,1.1422533988952637,-6.0968523025512695,-1.354842185974121
1717013209977172200,62.37317211914063,-0.20280981063842773,-10.880584716796875,5.391020774841309
1717013210037169700,62.43316967773438,2.578373908996582,-14.823063850402832,3.1547603607177734
1717013210097167000,62.4931669921875,0.17221534252166748,-13.35331916809082,3.0964441299438477
1717013210157195300,62.5531953125,-3.845097303390503,-10.36208724975586,11.439757347106934
1717013210217192700,62.61319262695312,0.5777221918106079,-7.99155855178833,6.285393714904785
1717013210277190400,62.6731904296875,-5.133984565734863,-4.429157733917236,10.30894660949707
1717013210337187800,62.73318774414062,3.5081565380096436,-1.7284941673278809,5.163558006286621
1717013210397185500,62.793185546875,-2.9749908447265625,1.8706254959106445,5.743108749389648
1717013210457183000,62.85318286132812,-1.3227883577346802,4.8166303634643555,2.691162109375
1717013210517180400,62.91318041992187,0.5718933343887329,7.411889553070068,-0.5207085609436035
1717013210577178000,62.97317822265625,-0.09445112943649292,7.927142143249512,-1.4273099899291992
1717013210637175800,63.03317578125,-0.04837733507156372,5.358201026916504,-4.851371765136719
1717013210697173200,63.09317333984375,-0.5877087116241455,0.2120985984802246,0.3122439384460449
1717013210757171000,63.1531708984375,2.9558827877044678,-4.177138805389404,1.2088727951049805
1717013210817168400,63.21316845703125,2.3084604740142822,-0.39379262924194336,-4.4086503982543945
1717013210877196500,63.27319653320313,-1.4865713119506836,-0.5396065711975098,-2.8417515754699707
1717013210937194000,63.33319409179688,-1.0579718351364136,-1.4387383460998535,-0.40849781036376953
1717013210997191400,63.39319140625,1.2726502418518066,-0.48967647552490234,0.3550992012023926
1717013211057189000,63.45318920898438,-0.22101765871047974,0.6124024391174316,-0.1941819190979004
1717013211117186600,63.5131865234375,-0.22512978315353394,2.0037336349487305,2.3775010108947754
1717013211177184300,63.57318432617188,1.135982632637024,3.47556471824646,5.193685531616211
1717013211237181700,63.633181640625,2.0356945991516113,3.873305559158325,4.929616451263428
1717013211297179400,63.69317944335938,0.13257890939712524,3.8239071369171143,2.391631603240967
1717013211357176800,63.7531767578125,1.147336483001709,1.1441144943237305,2.0499267578125
1717013211417174300,63.81317431640625,0.5808780193328857,-2.4828739166259766,4.014389991760254
1717013211477172000,63.873171875,1.0560725927352905,-6.41361141204834,3.7120752334594727
1717013211537169700,63.93316967773438,-0.3757697343826294,-7.622354984283447,1.2006292343139648
1717013211597167000,63.9931669921875,0.4137321710586548,-8.186104774475098,-1.0323553085327148
1717013211657195300,64.0531953125,-1.0452661514282227,-8.334037780761719,-1.4793004989624023
1717013211717192700,64.11319262695312,0.2834206819534302,-6.775286674499512,0.5130748748779297
1717013211777190400,64.1731904296875,-2.0835165977478027,-6.015425682067871,-1.0507712364196777
1717013211837187800,64.23318774414062,-1.9208768606185913,-3.9653282165527344,2.882963180541992
1717013211897185500,64.293185546875,-0.9276484251022339,-0.5285029411315918,3.985043525695801
1717013211957183000,64.35318286132812,0.04173719882965088,-1.137375831604004,-3.680631160736084
1717013212017180400,64.41318041992187,1.4664024114608765,0.7551050186157227,-5.185704231262207
1717013212077178000,64.47317822265624,-0.35984575748443604,3.169841766357422,1.8067197799682617
1717013212137175600,64.53317553710937,-2.4674572944641113,1.4889798164367676,0.7202901840209961
1717013212197173200,64.59317333984374,1.3614625930786133,-0.7523036003112793,-1.4883227348327637
1717013212257171000,64.6531708984375,1.5365701913833618,-0.6516208648681641,-1.2436065673828125
1717013212317168400,64.71316845703124,1.1969003677368164,-0.7570838928222656,-2.4391956329345703
1717013212377196500,64.77319653320312,1.115906000137329,0.5937838554382324,-2.0858678817749023
1717013212437194000,64.83319409179687,-2.1872780323028564,1.6000981330871582,2.316534996032715
1717013212497191400,64.89319140625,-0.06009936332702637,-0.5116429328918457,-0.6531190872192383
1717013212557189000,64.95318920898437,0.7185206413269043,-1.738877773284912,-4.316704750061035
1717013212617186600,65.0131865234375,0.38194525241851807,-1.9041252136230469,-4.839312553405762
1717013212677184300,65.07318432617187,0.25646770000457764,-2.185758113861084,-6.30300235748291
1717013212737181700,65.133181640625,0.3869880437850952,-2.1454739570617676,-5.390949249267578
1717013212797179400,65.19317944335937,0.031928300857543945,-0.7744631767272949,-1.2516961097717285
1717013212857176800,65.2531767578125,1.0877151489257812,-2.57352352142334,-2.479586601257324
1717013212917174500,65.31317456054687,-0.786405086517334,-5.629880905151367,-2.0913596153259277
1717013212977172200,65.37317211914062,-0.5355318784713745,-9.057779312133789,7.198356628417969
1717013213037169700,65.43316967773437,1.0940029621124268,-10.212225914001465,5.363153457641602
1717013213097167000,65.4931669921875,-0.3167821168899536,-8.554740905761719,4.356602668762207
1717013213157195300,65.5531953125,-3.457601308822632,-8.803747177124023,4.203821182250977
1717013213217192700,65.61319262695312,3.335705280303955,-9.213117599487305,5.320911407470703
1717013213277190400,65.6731904296875,-4.408384323120117,-7.9997782707214355,5.6785173416137695
1717013213337187800,65.73318774414062,4.236469268798828,-4.518242835998535,4.806847095489502
1717013213397185500,65.793185546875,-2.545828342437744,-0.03012847900390625,4.753918647766113
1717013213457183000,65.85318286132812,-0.5430115461349487,4.7412190437316895,1.4452629089355469
1717013213517180400,65.91318041992187,-2.4960739612579346,8.025739669799805,3.7797789573669434
1717013213577178000,65.97317822265624,1.636291265487671,7.0140886306762695,-0.2917056083679199
1717013213637175800,66.03317578125,1.8787825107574463,4.804805755615234,-2.2837398052215576
1717013213697173200,66.09317333984374,0.3156138062477112,1.2810697555541992,-2.2267940044403076
1717013213757171000,66.1531708984375,1.832411289215088,-2.979163646697998,3.1374735832214355
1717013213817168400,66.21316845703124,2.435807943344116,0.556272029876709,-0.8910470008850098
1717013213877196500,66.27319653320312,-2.431178569793701,0.03023529052734375,-2.7366538047790527
1717013213937194000,66.33319409179687,-1.6980009078979492,-0.05789947509765625,0.06185007095336914
1717013213997191700,66.39319165039062,1.3449393510818481,0.583956241607666,0.6897144317626953
1717013214057189000,66.45318920898437,0.7362772226333618,1.1093840599060059,3.04351806640625
1717013214117186600,66.5131865234375,-0.5078407526016235,1.9243254661560059,4.380497932434082
1717013214177184300,66.57318432617187,1.7369699478149414,2.159468173980713,7.026918411254883
1717013214237181700,66.633181640625,0.07742524147033691,0.6098971366882324,4.792840957641602
1717013214297179400,66.69317944335937,0.3800274729728699,-0.6147446632385254,1.3162450790405273
1717013214357176800,66.7531767578125,-0.4871522784233093,-1.9286088943481445,0.5216140747070312
1717013214417174300,66.81317431640625,1.8305120468139648,-4.2264299392700195,-0.3193693161010742
1717013214477172000,66.873171875,-0.7962696552276611,-5.601849555969238,-1.3356428146362305
1717013214537169700,66.93316967773437,1.6478883028030396,-6.781349182128906,-1.5839614868164062
1717013214597167000,66.9931669921875,2.094562292098999,-6.670622825622559,-1.2129650115966797
1717013214657195300,67.0531953125,-1.0147790908813477,-6.581789016723633,-1.5598788261413574
1717013214717192700,67.11319262695312,-2.5155880451202393,-6.176961898803711,0.8512659072875977
1717013214777190400,67.1731904296875,0.30715346336364746,-5.747747421264648,-1.0197505950927734
1717013214837187800,67.23318774414062,-0.4643137454986572,-3.823193073272705,1.6574392318725586
1717013214897185500,67.293185546875,-3.7144832611083984,0.7065701484680176,1.1165552139282227
1717013214957183000,67.35318286132812,0.45913147926330566,1.5104093551635742,-2.0049314498901367
1717013215017180400,67.41318041992187,-0.32785487174987793,1.1234207153320312,-2.8418307304382324
1717013215077178000,67.47317822265624,-0.6541390419006348,3.5238027572631836,1.8232965469360352
1717013215137175600,67.53317553710937,-1.8931605815887451,2.6293821334838867,4.651134490966797
1717013215197173200,67.59317333984374,1.7821826934814453,0.5417051315307617,1.4932174682617188
1717013215257171000,67.6531708984375,1.9235838651657104,-0.8518919944763184,-1.7910823822021484
1717013215317168400,67.71316845703124,2.02325701713562,-1.0910325050354004,-2.8626184463500977
1717013215377196500,67.77319653320312,1.3881839513778687,0.6767024993896484,-4.491814613342285
1717013215437194000,67.83319409179687,-2.7759320735931396,1.5845279693603516,2.632734775543213
1717013215497191400,67.89319140625,0.9304840564727783,-0.03986549377441406,-0.09595632553100586
1717013215557189000,67.95318920898437,2.1526503562927246,-0.9679489135742188,-3.451904296875
1717013215617186600,68.0131865234375,0.2461094856262207,-0.8993582725524902,-3.0597620010375977
1717013215677184300,68.07318432617187,0.7926718592643738,-1.1829948425292969,-5.57657527923584
1717013215737181700,68.133181640625,0.354331374168396,-1.370889663696289,-6.155092239379883
1717013215797179400,68.19317944335937,-0.5426344871520996,-1.1595978736877441,-4.736367702484131
1717013215857176800,68.2531767578125,1.5304338932037354,-2.6071972846984863,-5.03543758392334
1717013215917174500,68.31317456054687,1.2458382844924927,-6.069270133972168,-3.4191551208496094
1717013215977172200,68.37317211914062,0.5373311042785645,-9.489099502563477,3.3236160278320312
1717013216037169700,68.43316967773437,-1.3669242858886719,-12.345132827758789,5.078788757324219
1717013216097167000,68.4931669921875,-0.9381493330001831,-11.030130386352539,8.474467277526855
1717013216157195300,68.5531953125,-1.0906306505203247,-9.6318359375,6.6849870681762695
1717013216217192700,68.61319262695312,-0.43339312076568604,-6.824457168579102,5.729321479797363
1717013216277190400,68.6731904296875,-0.9716315269470215,-5.108299732208252,9.793159484863281
1717013216337187800,68.73318774414062,3.340583562850952,-3.2394118309020996,6.931855201721191
1717013216397185500,68.793185546875,-2.4230575561523438,0.7047953605651855,4.9287614822387695
1717013216457183000,68.85318286132812,-0.96925950050354,3.3981504440307617,1.9481439590454102
1717013216517180400,68.91318041992187,-2.6805737018585205,6.5895094871521,-1.44903564453125
1717013216577178000,68.97317822265624,-0.38283032178878784,7.39925479888916,-1.2494540214538574
1717013216637175800,69.03317578125,-0.6254366636276245,6.126025676727295,-3.367722272872925
1717013216697173200,69.09317333984374,0.5545569658279419,2.441720485687256,-0.3813939094543457
1717013216757171000,69.1531708984375,-0.9779524803161621,-3.848752498626709,2.76816463470459
1717013216817168400,69.21316845703124,3.9044384956359863,-1.034350872039795,-2.305710792541504
1717013216877196500,69.27319653320312,0.7831810712814331,-0.1392207145690918,-3.5513570308685303
1717013216937194000,69.33319409179687,-0.9334627389907837,-0.8445582389831543,-0.5274667739868164
1717013216997191700,69.39319165039062,-0.07821488380432129,-0.6538372039794922,0.8275136947631836
1717013217057189000,69.45318920898437,2.251955509185791,1.8923745155334473,1.5651636123657227
1717013217117186600,69.5131865234375,0.9334230422973633,3.962864875793457,3.9958529472351074
1717013217177184300,69.57318432617187,1.0578724145889282,3.451421022415161,8.151174545288086
1717013217237181700,69.633181640625,2.2178800106048584,2.312621593475342,2.9022555351257324
1717013217297179400,69.69317944335937,0.759799599647522,1.3971858024597168,0.06481552124023438
1717013217357176800,69.7531767578125,-0.8265987634658813,-0.8325181007385254,0.1617116928100586
1717013217417174300,69.81317431640625,0.03920614719390869,-4.14326286315918,2.149235725402832
1717013217477172000,69.873171875,-1.1767431497573853,-5.167999267578125,1.2289676666259766
1717013217537169700,69.93316967773437,2.1321873664855957,-6.979758262634277,-0.0672597885131836
1717013217597167000,69.9931669921875,-0.5696358680725098,-5.7166852951049805,0.8411655426025391
1717013217657195300,70.0531953125,-1.2229443788528442,-6.149816513061523,1.2502717971801758
1717013217717192700,70.11319262695312,-0.687401294708252,-6.096322059631348,0.09983062744140625
1717013217777190400,70.1731904296875,1.5320185422897339,-5.514057636260986,-0.023062705993652344
1717013217837187800,70.23318774414062,-0.22795891761779785,-3.601086139678955,1.619028091430664
1717013217897185500,70.293185546875,-1.4867324829101562,-1.7913377285003662,-0.8373990058898926
1717013217957183000,70.35318286132812,-0.3347351551055908,0.3370237350463867,-1.3346071243286133
1717013218017180400,70.41318041992187,0.7605260610580444,2.407824993133545,-2.834343433380127
1717013218077178000,70.47317822265624,-1.439563512802124,3.5978050231933594,1.6307306289672852
1717013218137175600,70.53317553710937,-0.5790812969207764,1.8059139251708984,1.0771827697753906
1717013218197173200,70.59317333984374,-0.08726799488067627,0.14313125610351562,-1.475484848022461
1717013218257171000,70.6531708984375,0.48565638065338135,-0.6478257179260254,-3.035771369934082
1717013218317168400,70.71316845703124,1.1377543210983276,-0.5089263916015625,-2.806708335876465
1717013218377196500,70.77319653320312,0.27847909927368164,1.0152301788330078,-1.2936372756958008
1717013218437194000,70.83319409179687,-1.0927987098693848,0.9390287399291992,1.1124625205993652
1717013218497191400,70.89319140625,0.984484076499939,-0.7597975730895996,-2.103168487548828
1717013218557189000,70.95318920898437,1.4345635175704956,-1.8473868370056152,-4.744128704071045
1717013218617186600,71.0131865234375,1.0225234031677246,-1.9692468643188477,-5.209920883178711
1717013218677184300,71.07318432617187,0.09525024890899658,-1.5647072792053223,-4.870298862457275
1717013218737181700,71.133181640625,-0.6239811182022095,-1.1728949546813965,-3.1249985694885254
1717013218797179400,71.19317944335937,0.6524410247802734,-1.827028512954712,-4.223241329193115
1717013218857176800,71.2531767578125,0.7702999114990234,-3.230058193206787,-3.2068986892700195
1717013218916679200,71.31267919921875,0.34409570693969727,-5.553820610046387,1.5254697799682617
1717013218976676900,71.3726767578125,-2.361307144165039,-8.70632266998291,7.250411033630371
1717013219036674300,71.43267431640625,2.2192678451538086,-10.434971809387207,5.982804298400879
1717013219096672000,71.49267211914062,-0.7139489650726318,-8.553167343139648,3.7129087448120117
1717013219156700000,71.55269995117187,-2.0378565788269043,-7.088978290557861,6.8087053298950195
1717013219216697300,71.612697265625,1.8646395206451416,-6.397716522216797,4.669029235839844
1717013219276695000,71.67269506835937,-2.776184320449829,-4.853712558746338,7.907133102416992
1717013219336692500,71.7326923828125,1.0937702655792236,-2.558973789215088,4.041118144989014
1717013219396690200,71.79269018554687,1.4229010343551636,1.9272899627685547,4.3531365394592285
1717013219456687600,71.8526875,-2.53411865234375,5.59347677230835,0.5087141990661621
1717013219516685300,71.91268530273437,1.8766705989837646,7.275463581085205,-1.7953977584838867
1717013219576682800,71.97268286132812,1.8535704612731934,6.854885101318359,-3.3560407161712646
1717013219636680400,72.03268041992187,0.24478954076766968,4.72401237487793,-1.4897589683532715
1717013219696678100,72.09267822265625,-1.9725306034088135,-0.8743138313293457,0.9221959114074707
1717013219756675600,72.15267553710937,2.025848865509033,-2.013258934020996,2.0203332901000977
1717013219816673000,72.21267309570312,2.795422077178955,0.9876260757446289,-1.0721688270568848
1717013219876701200,72.272701171875,-1.9306553602218628,-0.16423606872558594,-1.7658586502075195
1717013219936698600,72.33269873046875,-1.1873427629470825,-0.8675022125244141,0.38736391067504883
1717013219996696300,72.3926962890625,1.515467643737793,0.2920651435852051,0.02615833282470703
1717013220056693800,72.45269384765625,0.6175824403762817,2.203688144683838,2.177131175994873
1717013220116691500,72.51269140625,0.13465803861618042,3.799234390258789,3.9235854148864746
1717013220176689000,72.57268896484375,2.1397576332092285,4.020609378814697,5.396170139312744
1717013220236686300,72.63268627929688,1.890076756477356,3.918614149093628,1.5732998847961426
1717013220296684000,72.69268408203125,-0.4332546591758728,0.9525899887084961,0.3487405776977539
1717013220356681500,72.75268139648438,1.299996018409729,-2.1245388984680176,2.5821971893310547
1717013220416679000,72.81267895507813,-0.45900285243988037,-4.110468864440918,4.273703575134277
1717013220476676600,72.87267651367188,0.03683191537857056,-6.928701400756836,1.2797021865844727
1717013220536674300,72.93267431640625,-0.4881540536880493,-6.789391040802002,-0.2637519836425781
1717013220596672000,72.99267211914062,-0.7403280735015869,-6.326437473297119,0.06931018829345703
1717013220656700000,73.05269995117187,-1.2175509929656982,-5.904535293579102,1.5618352890014648
1717013220716697600,73.11269750976562,-0.382839560508728,-5.314061641693115,1.0771093368530273
1717013220776695000,73.17269506835937,-0.6824766397476196,-3.9404044151306152,1.7078781127929688
1717013220836692500,73.2326923828125,-2.3171546459198,-1.157508373260498,4.253835678100586
1717013220896690200,73.29269018554687,-0.5050321817398071,-0.6839685440063477,-0.6770548820495605
1717013220956687600,73.3526875,4.238760948181152,-1.6143889427185059,-11.52740478515625
1717013221016685300,73.41268530273437,-3.5313830375671387,1.9091639518737793,4.263416767120361
1717013221076682800,73.47268286132812,-1.1329489946365356,1.903822898864746,-0.9277324676513672
1717013221136680200,73.53268017578125,0.260379433631897,0.0153350830078125,-0.7349586486816406
1717013221196678000,73.59267797851562,1.333914041519165,-0.40590667724609375,-2.9446258544921875
1717013221256675600,73.65267553710937,-0.06189155578613281,0.008206844329833984,0.12308597564697266
1717013221316673000,73.71267309570312,3.8302364349365234,0.18064308166503906,-4.171623229980469
1717013221376701200,73.772701171875,-2.3543710708618164,1.8568124771118164,2.2464985847473145
1717013221436698600,73.83269873046875,-2.389087438583374,1.1814899444580078,0.8607492446899414
1717013221496696300,73.8926962890625,1.039628267288208,-1.1882987022399902,-3.0084285736083984
1717013221556693800,73.95269384765625,1.5562275648117065,-1.7986435890197754,-5.32502555847168
1717013221616691500,74.01269140625,-0.03056633472442627,-2.3953189849853516,-6.387969970703125
1717013221676689000,74.07268896484375,0.25069260597229004,-2.502472400665283,-7.202752590179443
1717013221736686300,74.13268627929688,0.3148229122161865,-2.3815126419067383,-4.046788215637207
1717013221796684000,74.19268408203125,-0.042734384536743164,-3.5841681957244873,-2.9909181594848633
1717013221856681500,74.25268139648438,1.0351988077163696,-5.969841957092285,-0.6981163024902344
1717013221916679200,74.31267919921875,-0.45060789585113525,-10.072004318237305,4.861076354980469
1717013221976676900,74.3726767578125,2.4111838340759277,-12.197157859802246,4.255684852600098
1717013222036674300,74.43267431640625,-3.7446951866149902,-10.888628005981445,6.451292037963867
1717013222096672000,74.49267211914062,-2.3680419921875,-8.079329490661621,9.652029037475586
1717013222156700000,74.55269995117187,-2.79296612739563,-6.43187141418457,8.33532428741455
1717013222216697300,74.612697265625,0.9265093803405762,-4.287388801574707,7.217580795288086
1717013222276695000,74.67269506835937,1.37776780128479,-2.1050968170166016,5.260037422180176
1717013222336692500,74.7326923828125,-1.491153359413147,1.9879059791564941,4.774580478668213
1717013222396690200,74.79269018554687,-0.8000444173812866,3.9656176567077637,1.199005126953125
1717013222456687600,74.8526875,0.9685639142990112,6.092474937438965,-5.50661039352417
1717013222516685300,74.91268530273437,0.9948253035545349,7.768666744232178,-1.108109951019287
1717013222576682800,74.97268286132812,-0.6132552623748779,5.25868558883667,-0.5369019508361816
1717013222636680400,75.03268041992187,-1.3000859022140503,0.6426858901977539,-1.5358901023864746
1717013222696678100,75.09267822265625,0.32762861251831055,-2.9771595001220703,0.4680781364440918
1717013222756675600,75.15267553710937,2.5393295288085938,-0.45662832260131836,-1.6943483352661133
1717013222816673000,75.21267309570312,0.23387891054153442,-0.14319324493408203,-1.8491287231445312
1717013222876701200,75.272701171875,-1.366776466369629,-0.6722354888916016,-0.09631156921386719
1717013222936698600,75.33269873046875,0.4197691082954407,0.032808780670166016,0.7274203300476074
1717013222996696300,75.3926962890625,0.21107786893844604,2.107326030731201,2.8084983825683594
1717013223056693800,75.45269384765625,0.0911865234375,3.041844367980957,5.1797661781311035
1717013223116691500,75.51269140625,0.5553004145622253,3.74139404296875,6.701707363128662
1717013223176689000,75.57268896484375,2.1709189414978027,3.7770168781280518,1.7587013244628906
1717013223236686300,75.63268627929688,-0.03548693656921387,1.3070051670074463,0.8749656677246094
1717013223296684000,75.69268408203125,0.07929396629333496,-3.082158088684082,2.1454954147338867
