time,seconds_elapsed,z,y,x
1717013147676885000,0.072885009765625,1.33168625831604,-1.3866641521453857,1.0054842233657837
1717013147716895500,0.1128955078125,1.33168625831604,-1.3866641521453857,1.0054842233657837
1717013147756878600,0.152878662109375,0.22418753802776337,-1.7055357694625854,1.083064079284668
1717013147796884200,0.19288427734375,0.9297369122505188,-2.7085764408111572,1.225395679473877
1717013147836897800,0.232897705078125,1.7556266784667969,-2.4196372032165527,1.062294602394104
1717013147876906200,0.27290625,1.794722080230713,-2.272418737411499,1.197906732559204
1717013147916881400,0.31288134765625,2.431854486465454,-2.668870210647583,0.7580837607383728
1717013147956890600,0.352890625,2.6065618991851807,-3.274848461151123,1.2932016849517822
1717013147996899300,0.3928994140625,2.2369885444641113,-4.018271446228027,1.5919147729873657
1717013148036874200,0.432874267578125,2.9413161277770996,-2.954144239425659,0.16249015927314758
1717013148076886000,0.472885986328125,3.238196611404419,-1.8515325784683228,-0.8900306820869446
1717013148116894500,0.51289453125,2.668259382247925,-1.8887953758239746,-0.9712757468223572
1717013148156899800,0.55289990234375,2.445904493331909,-1.2577714920043945,-1.626123309135437
1717013148196880400,0.59288037109375,1.633453607559204,-0.9132435321807861,-1.4379768371582031
1717013148236889300,0.632889404296875,-0.36163222789764404,0.48380526900291443,-0.6249151229858398
1717013148276895000,0.67289501953125,-0.7935139536857605,2.2687535285949707,0.05803219974040985
1717013148316875800,0.712875732421875,-0.2168571650981903,2.112982988357544,0.24617868661880493
1717013148356884500,0.752884521484375,0.22540926933288574,0.8472700715065002,0.5204572081565857
1717013148396890000,0.79289013671875,0.2993239760398865,-0.016493361443281174,0.7929030656814575
1717013148436901400,0.8329013671875,0.29138273000717163,-0.08979719132184982,0.2974913716316223
1717013148476880000,0.8728798828125,0.3787364661693573,0.10567969083786011,-0.029932396486401558
1717013148516885500,0.912885498046875,0.1062905490398407,0.0910189226269722,0.2528982162475586
1717013148556896800,0.952896728515625,-0.20097467303276062,0.11545353382825851,0.3885102868080139
1717013148596875000,0.992875,-0.4612032473087311,0.4911356568336487,-0.04764748737215996
1717013148636880100,1.032880126953125,-0.7904596328735352,0.9010262489318848,-0.21563543379306793
1717013148676892000,1.072891845703125,-0.7031059265136719,1.4184291362762451,-0.42149701714515686
1717013148716902400,1.11290234375,-0.5711590051651001,2.1068742275238037,-0.3982841372489929
1717013148756875500,1.15287548828125,-0.5699372887611389,0.04948008432984352,1.55892813205719
1717013148796887000,1.192886962890625,-1.086118459701538,-2.881451368331909,2.682920217514038
1717013148836895200,1.232895263671875,-0.7806857824325562,-3.332880735397339,2.1093177795410156
1717013148876900900,1.27290087890625,-1.1575896739959717,-1.890017032623291,0.617584764957428
1717013148916882000,1.3128818359375,-1.0231993198394775,-2.3292291164398193,0.5852088928222656
1717013148956890400,1.352890380859375,-1.7220290899276733,-3.7165040969848633,0.513737678527832
1717013148996896300,1.392896240234375,-1.6285667419433594,-4.575991630554199,0.5595525503158569
1717013149036877000,1.432876953125,-2.3524420261383057,-5.983425140380859,0.8955284357070923
1717013149076885800,1.4728857421875,-2.6584856510162354,-6.557638168334961,1.5015068054199219
1717013149116895700,1.512895751953125,-2.2259929180145264,-7.797083854675293,2.302962064743042
1717013149156903700,1.552903564453125,-0.9095783233642578,-6.364604949951172,0.44226643443107605
1717013149196881200,1.592881103515625,-0.40133845806121826,-0.4184426963329315,-3.7617082595825195
1717013149236888600,1.632888671875,-0.28588494658470154,3.6248743534088135,-2.0280725955963135
1717013149276898600,1.672898681640625,0.48869219422340393,1.0366383790969849,1.5913039445877075
1717013149316876800,1.712876708984375,-0.12339477986097336,-0.4202753007411957,1.9034560918807983
1717013149356883000,1.752883056640625,-0.09957103431224823,-1.1740829944610596,1.4007140398025513
1717013149396893700,1.792893798828125,-0.17898350954055786,-0.5937610268592834,0.2076941877603531
1717013149436902100,1.832902099609375,-0.2541199326515198,-0.6145304441452026,-0.17104226350784302
1717013149476877300,1.872877197265625,-0.2877175211906433,-0.5693264007568359,-0.4202753007411957
1717013149516888000,1.91288818359375,-0.018936822190880775,-0.02626720629632473,-0.8051204085350037
1717013149556896800,1.952896728515625,0.04703662544488907,2.1087067127227783,-2.5363125801086426
1717013149596874800,1.992874755859375,0.1270599663257599,3.888157367706299,-2.509434461593628
1717013149636885500,2.032885498046875,0.5174028873443604,3.0720412731170654,-1.1691961288452148
1717013149676894000,2.07289404296875,-0.12828169763088226,-0.036041051149368286,0.4538728892803192
1717013149716897500,2.1128974609375,-0.4202753007411957,-0.7006624341011047,0.6872233748435974
1717013149756878600,2.152878662109375,-0.28649580478668213,0.23518311977386475,-0.2877175211906433
1717013149796889000,2.19288916015625,-0.31031954288482666,1.0115928649902344,-1.1288789510726929
1717013149836896800,2.232896728515625,-0.4648684561252594,1.5613715648651123,-1.2400563955307007
1717013149876906200,2.27290625,-0.39645153284072876,1.794722080230713,-1.2473868131637573
1717013149916884200,2.31288427734375,-0.23884831368923187,1.274264931678772,-0.5021312236785889
1717013149956889900,2.352889892578125,-0.14294247329235077,0.6340781450271606,0.1215621829032898
1717013149996903400,2.3929033203125,-0.1258382350206375,0.7220427393913269,-0.192422553896904
1717013150036877300,2.432877197265625,-0.21441370248794556,1.0512990951538086,-0.08185594528913498
1717013150076884700,2.472884765625,-0.8772025108337402,1.2302825450897217,-0.6768386960029602
1717013150116894500,2.51289453125,-0.5839871764183044,1.7159204483032227,-0.49357911944389343
1717013150156936700,2.552936767578125,-0.23884831368923187,1.072068452835083,0.15332718193531036
1717013150196881700,2.592881591796875,0.060475658625364304,0.8295549750328064,0.0024434609804302454
1717013150236891400,2.632891357421875,0.9810495972633362,0.7648032903671265,-0.09346238523721695
1717013150276898000,2.67289794921875,2.3518311977386475,0.8252789378166199,-1.244943380355835
1717013150316873200,2.712873291015625,3.607159376144409,1.176526427268982,-1.3585642576217651
1717013150356884500,2.752884521484375,3.8264598846435547,0.816726803779602,-1.1520918607711792
1717013150396893400,2.7928935546875,3.5723400115966797,0.23884831368923187,-0.9853256344795227
1717013150436898800,2.83289892578125,4.346306324005127,-0.46670106053352356,0.3988949954509735
1717013150476880000,2.8728798828125,3.53141188621521,-0.05009094998240471,-0.1765400618314743
1717013150516888600,2.912888671875,3.2284228801727295,0.7721336483955383,-0.4392121136188507
1717013150556893700,2.952893798828125,3.4495561122894287,0.38728857040405273,0.3995058834552765
1717013150596875000,2.992875,2.3664920330047607,-0.33169981837272644,0.40256020426750183
1717013150636883500,3.032883544921875,1.7715091705322266,0.4031710624694824,0.2541199326515198
1717013150676889000,3.07288916015625,1.9077321290969849,0.9590584635734558,0.3585779070854187
1717013150716900600,3.112900634765625,2.0592267513275146,0.7745771408081055,0.11362093687057495
1717013150756878600,3.152878662109375,1.8991800546646118,0.6407976150512695,-0.04948008432984352
1717013150796884000,3.192884033203125,1.4599679708480835,0.6621779203414917,0.25534167885780334
1717013150836895500,3.2328955078125,0.8258898258209229,0.5277875661849976,0.7531968355178833
1717013150876904000,3.272904052734375,0.15760323405265808,0.33047810196876526,1.0213667154312134
1717013150916879400,3.31287939453125,-0.4990769028663635,0.23945917189121246,0.921184778213501
1717013150956893000,3.352892822265625,-0.9334021210670471,0.22846360504627228,0.07880161702632904
1717013150996901600,3.392901611328125,-0.40744712948799133,0.455705463886261,-1.2064588069915771
1717013151036876500,3.43287646484375,0.4893030524253845,1.2870930433273315,-1.974927306175232
1717013151076887800,3.4728876953125,0.2742784917354584,1.6829338073730469,-1.8081611394882202
1717013151116896800,3.512896728515625,-0.7464773058891296,1.730581283569336,-0.9902125597000122
1717013151156901600,3.552901611328125,-1.6365079879760742,1.7568484544754028,-0.26145032048225403
1717013151196880400,3.59288037109375,-1.1343767642974854,1.3329079151153564,0.12278391420841217
1717013151236891400,3.632891357421875,-0.01466076634824276,0.42699480056762695,0.19425514340400696
1717013151276897300,3.672897216796875,0.4184426963329315,-0.5186246037483215,0.23029619455337524
1717013151316878300,3.71287841796875,0.3182607889175415,-0.6511823534965515,0.2125810980796814
1717013151356886500,3.752886474609375,0.5241223573684692,-0.20586158335208893,-0.12034045159816742
1717013151396892400,3.792892333984375,0.485027015209198,-0.20830504596233368,-0.21563543379306793
1717013151436904000,3.832904052734375,0.31459560990333557,-0.3933972120285034,-0.033597588539123535
1717013151476881700,3.872881591796875,0.08429940044879913,-0.08857546001672745,-0.7244861721992493
1717013151516887300,3.91288720703125,-0.19608774781227112,0.7538077235221863,-1.5503759384155273
1717013151556898800,3.95289892578125,-0.43127086758613586,0.8405506014823914,-1.8545868396759033
1717013151596878800,3.99287890625,-0.2724458873271942,0.19303341209888458,-0.8423831462860107
1717013151636882700,4.032882568359375,-0.18081611394882202,-0.8869763612747192,0.5876523852348328
1717013151676894000,4.07289404296875,-0.2321287989616394,-1.281595230102539,1.1386528015136719
1717013151716900600,4.112900634765625,-0.11362093687057495,-1.1343767642974854,1.3139711618423462
1717013151756875500,4.15287548828125,-0.20402899384498596,-0.6969972252845764,0.9553932547569275
1717013151796887000,4.192886962890625,-0.6108652353286743,-0.827722430229187,0.931569516658783
1717013151836897500,4.2328974609375,-0.8570439219474792,-0.8747590184211731,0.799011766910553
1717013151876903200,4.272903076171875,-0.9193521738052368,-1.0378600358963013,0.4856378734111786
1717013151916882200,4.312882080078125,-1.043968677520752,-1.6517796516418457,0.9822713136672974
1717013151956890600,4.352890625,-1.6090190410614014,-1.8839083909988403,0.7922922372817993
1717013151996898600,4.392898681640625,-2.0500638484954834,-1.6578882932662964,0.7770205736160278
1717013152036879600,4.432879638671875,-2.624277114868164,-1.8332066535949707,0.28527405858039856
1717013152076888300,4.472888427734375,-2.4935519695281982,-1.6878206729888916,0.13866640627384186
1717013152116893700,4.512893798828125,-2.311514139175415,-2.1795670986175537,0.12889257073402405
1717013152156904700,4.55290478515625,-2.1820106506347656,-1.8362609148025513,-0.09224065393209457
1717013152196883000,4.592883056640625,-2.0372354984283447,-1.5766432285308838,-0.0910189226269722
1717013152236886500,4.632886474609375,-1.8985692262649536,-2.0024163722991943,-0.11239920556545258
1717013152276898300,4.672898193359375,-2.0170769691467285,-1.4233160018920898,-0.5998696684837341
1717013152316876300,4.712876220703125,-2.076941728591919,-1.833817481994629,-0.2590068578720093
1717013152356883700,4.7528837890625,-1.6841554641723633,-2.3432791233062744,-0.1368338167667389
1717013152396895200,4.792895263671875,-1.3909401893615723,-1.9480493068695068,-0.5937610268592834
1717013152436901600,4.832901611328125,-2.0109684467315674,-0.6102544069290161,-1.722640037536621
1717013152476876800,4.872876708984375,-2.02929425239563,1.33168625831604,-2.7794368267059326
1717013152516888300,4.912888427734375,-1.1136072874069214,3.3212742805480957,-1.6322319507598877
1717013152556899600,4.952899658203125,0.12339477986097336,0.9297369122505188,0.4550946056842804
1717013152596876000,4.9928759765625,0.4392121136188507,-0.7086036801338196,0.8405506014823914
1717013152636885500,5.032885498046875,0.05009094998240471,-0.11850785464048386,0.8417723178863525
1717013152676894000,5.07289404296875,-0.16065755486488342,-0.4001167416572571,0.6884451508522034
1717013152716899600,5.112899658203125,-0.7409795522689819,-0.4251621961593628,-0.3885102868080139
1717013152756878600,5.152878662109375,-0.9010262489318848,0.08429940044879913,-0.607200026512146
1717013152796889300,5.192889404296875,-0.543059229850769,0.14355333149433136,-0.588263213634491
1717013152836893200,5.23289306640625,-0.3830125033855438,0.8161159753799438,-0.7128797173500061
1717013152877294000,5.273294189453125,0.1618792861700058,0.32559117674827576,0.33108896017074585
1717013152917274000,5.313274169921875,0.015882495790719986,-0.3384193480014801,0.6438519954681396
1717013152957280300,5.3532802734375,-0.20586158335208893,-0.23457226157188416,0.46670106053352356
1717013152997291300,5.393291259765625,0.16249015927314758,-0.20036379992961884,0.4141666293144226
1717013153037270000,5.43327001953125,0.016493361443281174,0.1466076523065567,-0.28038713335990906
1717013153077275400,5.473275390625,0.3805690407752991,0.6701191663742065,-0.5925393104553223
1717013153117287000,5.513286865234375,0.931569516658783,0.9535606503486633,-0.645684540271759
1717013153157293300,5.553293212890625,1.577254056930542,1.1374311447143555,-0.5009095072746277
1717013153197269800,5.593269775390625,2.5448646545410156,0.4392121136188507,0.34147366881370544
1717013153237279500,5.633279541015625,3.0500502586364746,0.2321287989616394,0.6872233748435974
1717013153277288200,5.6732880859375,3.514918565750122,0.5119050741195679,0.6145304441452026
1717013153317263000,5.71326318359375,3.6022722721099854,1.0922271013259888,-0.40133845806121826
1717013153357274600,5.753274658203125,3.5491271018981934,1.5931365489959717,-0.5662720799446106
1717013153397283000,5.793282958984375,3.19665789604187,0.9230173826217651,0.5870414972305298
1717013153437288700,5.833288818359375,2.546086311340332,0.41111230850219727,1.2962560653686523
1717013153477271800,5.873271728515625,2.308459758758545,0.07391469180583954,1.3322970867156982
1717013153517280500,5.913280517578125,2.0983221530914307,0.01710422709584236,1.8203784227371216
1717013153557286000,5.953285888671875,1.7177530527114868,0.33536502718925476,0.9327912330627441
1717013153597267000,5.993266845703125,2.3487768173217773,0.06536258012056351,1.3683381080627441
1717013153637275100,6.033275146484375,1.9792033433914185,-0.5858197808265686,1.6811012029647827
1717013153677281000,6.073281005859375,1.5601497888565063,1.4110987186431885,-0.7843509912490845
1717013153717292500,6.11329248046875,1.4123204946517944,2.3047945499420166,-0.3995058834552765
1717013153757268200,6.153268310546875,1.0598511695861816,1.6407840251922607,-0.6444628238677979
1717013153797273900,6.19327392578125,0.7452555894851685,2.0958786010742188,-1.7385225296020508
1717013153837285400,6.233285400390625,0.5705481171607971,2.2321016788482666,-1.7507398128509521
1717013153877294000,6.273294189453125,0.45875978469848633,2.0390682220458984,-1.0702359676361084
1717013153917269000,6.31326904296875,0.33536502718925476,1.6664403676986694,-0.8753699064254761
1717013153957280300,6.3532802734375,0.2730567753314972,1.3475687503814697,-0.2724458873271942
1717013153997289000,6.3932890625,-0.1111774742603302,1.2394455671310425,-0.5632177591323853
1717013154037266200,6.43326611328125,-0.375071257352829,1.0231993198394775,-0.8918632864952087
1717013154077277700,6.473277587890625,-0.30543261766433716,0.3078760802745819,-0.8820894360542297
1717013154117286400,6.513286376953125,0.1722639948129654,-0.05009094998240471,-0.99876469373703
1717013154157323800,6.55332373046875,0.5308418869972229,0.2590068578720093,-0.27611109614372253
1717013154197272300,6.593272216796875,-0.6090326309204102,0.5577199459075928,0.7806857824325562
1717013154237281500,6.633281494140625,-1.6084082126617432,0.8674286603927612,1.3096951246261597
1717013154277287200,6.673287109375,-1.1172724962234497,0.6133087277412415,0.5448917746543884
1717013154317268200,6.713268310546875,-0.8008443117141724,0.504574716091156,-0.4758640229701996
1717013154357276700,6.753276611328125,-0.8436049222946167,0.5308418869972229,-0.7092145681381226
1717013154397282300,6.7932822265625,-0.423329621553421,0.4966334402561188,-0.6133087277412415
1717013154437293300,6.833293212890625,-0.18631389737129211,0.15882496535778046,-0.00855211354792118
1717013154477271600,6.873271484375,0.12828169763088226,-0.3805690407752991,0.42577308416366577
1717013154517277400,6.91327734375,0.38667771220207214,-0.616973876953125,0.13561208546161652
1717013154557288700,6.953288818359375,0.5455026626586914,-0.779464066028595,-0.2626720666885376
1717013154597266700,6.9932666015625,0.4434881806373596,-0.59803706407547,-0.21135938167572021
1717013154637272300,7.033272216796875,0.44165557622909546,-0.3170390725135803,-0.08124507963657379
1717013154677284000,7.0732841796875,0.40072759985923767,-0.33536502718925476,-0.016493361443281174
1717013154717292800,7.113292724609375,0.2382374405860901,-0.25473082065582275,0.027488935738801956
1717013154757267500,7.153267333984375,0.024434609338641167,-0.14355333149433136,-0.10812314599752426
1717013154797279000,7.193279052734375,0.06352998316287994,0.02076941914856434,-0.1869247704744339
1717013154837287700,7.23328759765625,0.17531833052635193,-0.010995574295520782,-0.30604347586631775
1717013154877293000,7.27329296875,0.1966986060142517,-0.07757988572120667,-0.35185837745666504
1717013154917274400,7.3132744140625,0.14294247329235077,-0.3378084897994995,0.02687807008624077
1717013154957282600,7.353282470703125,0.1258382350206375,-0.7446447610855103,0.24129177629947662
1717013154997288200,7.3932880859375,0.29138273000717163,-0.8808676600456238,0.42149701714515686
1717013155037267200,7.43326708984375,0.09834930300712585,-0.7764097452163696,0.6139195561408997
1717013155077275600,7.473275634765625,-0.4184426963329315,-0.5907067060470581,0.8747590184211731
1717013155117283600,7.51328369140625,-0.6860016584396362,-0.6133087277412415,1.1020009517669678
1717013155157294300,7.55329443359375,-0.7617489695549011,-0.4996877610683441,0.9004153609275818
1717013155197270500,7.5932705078125,-0.7519751191139221,-0.17348572611808777,0.5326744914054871
1717013155237278500,7.633278564453125,-1.2278391122817993,-0.27611109614372253,0.5143485069274902
1717013155277290000,7.6732900390625,-1.4001030921936035,-0.25106561183929443,0.6884451508522034
1717013155317268200,7.713268310546875,-1.2278391122817993,-0.40194934606552124,0.6982190012931824
1717013155357273600,7.753273681640625,-1.273043155670166,-0.7128797173500061,0.37079519033432007
1717013155397283000,7.793282958984375,-1.55892813205719,-0.817948579788208,0.31642818450927734
1717013155437294000,7.833294189453125,-2.2650883197784424,-0.5338962078094482,0.21807889640331268
1717013155477268700,7.873268798828125,-2.266921043395996,-0.8619308471679688,0.578489363193512
1717013155517278500,7.913278564453125,-2.439795732498169,-0.48319441080093384,-0.021380282938480377
1717013155557287000,7.953286865234375,-2.459343433380127,-0.22479841113090515,0.45326200127601624
1717013155597262000,7.993261962890625,-3.3896913528442383,-0.2791654169559479,-0.22357667982578278
1717013155637273300,8.0332734375,-3.6157114505767822,1.8203784227371216,-0.3927863538265228
1717013155677282000,8.073281982421875,-3.483764410018921,1.8777997493743896,0.22357667982578278
1717013155717287400,8.113287353515625,-3.9791762828826904,2.375044107437134,0.182648703455925
1717013155757268500,8.1532685546875,-4.024380207061768,4.514904975891113,-0.19792033731937408
1717013155797277000,8.19327685546875,-3.02317214012146,5.5289411544799805,-0.3194825351238251
1717013155837282300,8.2332822265625,-1.547932505607605,5.369505405426025,0.5290092825889587
1717013155877294600,8.273294677734375,-0.04642575979232788,1.189354658126831,0.7996225953102112
1717013155917271800,8.313271728515625,0.608421802520752,-1.4721852540969849,1.092837929725647
1717013155957279700,8.35327978515625,0.2620611786842346,-1.3829989433288574,1.3432927131652832
1717013155997289000,8.3932890625,-0.4245513379573822,-0.5351179838180542,0.9285151958465576
1717013156037267200,8.43326708984375,-0.33475416898727417,-0.5864306092262268,1.0201449394226074
1717013156077272800,8.47327294921875,0.009773843921720982,-0.9859365224838257,1.1582005023956299
1717013156117286400,8.513286376953126,-0.3066543638706207,-0.8057312369346619,0.5974262356758118
1717013156157292500,8.55329248046875,-0.8552113175392151,0.6291912198066711,-0.1618792861700058
1717013156197268200,8.593268310546875,-0.5778785347938538,1.6010777950286865,-0.3323107063770294
1717013156237279200,8.633279296875,0.2669481039047241,0.3139847218990326,0.1411098688840866
1717013156277290000,8.6732900390625,0.3933972120285034,-0.646295428276062,0.5503895878791809
1717013156317265200,8.71326513671875,0.1459967941045761,-0.12889257073402405,0.3445279896259308
1717013156357274400,8.7532744140625,-0.03298672288656235,-0.10934487730264664,0.28955012559890747
1717013156397283000,8.793282958984374,-0.12217304855585098,-0.09712757170200348,0.15332718193531036
1717013156437288400,8.833288330078124,-0.01038470957428217,0.17776179313659668,0.05619960278272629
1717013156477270300,8.873270263671875,0.2736676335334778,-0.05009094998240471,-0.01710422709584236
1717013156517279000,8.913279052734374,0.6352998614311218,-0.3488040566444397,-0.2767219543457031
1717013156557283800,8.953283935546875,1.1288789510726929,-0.3194825351238251,-0.46792277693748474
1717013156597265000,8.993264892578125,1.4966198205947876,-0.5760459303855896,-0.6505714654922485
1717013156637275400,9.033275390625,1.853365182876587,-0.7819074988365173,-1.2510520219802856
1717013156677279000,9.073279052734375,2.1655173301696777,-0.8949176073074341,-1.742187738418579
1717013156717290500,9.11329052734375,2.4049763679504395,-1.0396926403045654,-2.090991735458374
1717013156757268500,9.1532685546875,2.930931329727173,-1.0812314748764038,-2.5558602809906006
1717013156797274000,9.193274169921875,2.8215866088867188,-1.4214833974838257,-2.668870210647583
1717013156837285400,9.233285400390624,2.8594601154327393,-0.6676757335662842,-2.001194477081299
1717013156877294000,9.273294189453125,2.894890308380127,-0.08368854224681854,-1.0671815872192383
1717013156917269000,9.31326904296875,3.0421090126037598,-0.6860016584396362,-0.16982053220272064
1717013156957280800,9.35328076171875,3.0750956535339355,-1.6865988969802856,0.5412266254425049
1717013156997291500,9.39329150390625,2.5809056758880615,-1.3078625202178955,0.0507018156349659
1717013157037266700,9.4332666015625,2.9584202766418457,-1.047023057937622,0.12034045159816742
1717013157077276000,9.47327587890625,2.9798007011413574,-1.0952813625335693,-0.3396410644054413
1717013157117286700,9.51328662109375,2.492330312728882,-0.11239920556545258,-1.0042624473571777
1717013157157291800,9.553291748046876,1.9480493068695068,-0.6133087277412415,-0.3836233615875244
1717013157197272800,9.59327294921875,1.3756685256958008,-0.016493361443281174,-0.7141014933586121
1717013157237279200,9.633279296875,0.6120869517326355,0.20341812074184418,0.17898350954055786
1717013157277284900,9.673284912109375,0.19425514340400696,-0.5742133259773254,1.3738359212875366
1717013157317268000,9.71326806640625,-0.3549126982688904,0.7367035150527954,0.6218608021736145
1717013157357274400,9.7532744140625,-0.3445279896259308,1.102611780166626,-1.217454433441162
1717013157397282300,9.7932822265625,-0.42271876335144043,0.5002986192703247,-0.49724429845809937
1717013157437291300,9.833291259765625,-0.28466320037841797,-0.15027284622192383,0.6065891981124878
1717013157477271600,9.873271484375,-0.5870414972305298,-0.16920967400074005,0.49846604466438293
1717013157517277400,9.91327734375,-0.27488934993743896,0.5406157374382019,-0.18631389737129211
1717013157557288700,9.953288818359376,0.13744467496871948,1.3237450122833252,-0.9395107626914978
1717013157597267000,9.993266845703126,0.3579670190811157,1.6310101747512817,-1.4862351417541504
1717013157637272300,10.033272216796876,0.513737678527832,1.3457361459732056,-1.4697418212890625
1717013157677283800,10.073283935546876,0.3219259977340698,0.8228355050086975,-0.46731191873550415
1717013157717292500,10.11329248046875,-0.4129449129104614,0.45204028487205505,0.7586946487426758
1717013157757267500,10.153267333984376,-0.6383541822433472,0.5106833577156067,1.147204875946045
1717013157797279000,10.193279052734376,-0.2724458873271942,0.44654250144958496,0.4031710624694824
1717013157837288000,10.233287841796875,-0.02015855349600315,0.3439171314239502,-0.49235737323760986
1717013157877293000,10.27329296875,-0.07696902006864548,0.1160643994808197,-0.7446447610855103
1717013157917274000,10.313274169921876,-0.09224065393209457,0.08368854224681854,-0.4697553813457489
1717013157957282600,10.353282470703125,-0.006108652334660292,0.12522737681865692,-0.036041051149368286
1717013157997288400,10.393288330078125,0.21441370248794556,0.009773843921720982,0.00733038317412138
1717013158037269800,10.433269775390626,0.3878994286060333,-0.23640485107898712,-0.1618792861700058
1717013158077278000,10.47327783203125,0.3280346393585205,-0.2822197377681732,-0.1667662113904953
1717013158117283600,10.51328369140625,0.3243694305419922,-0.025045474991202354,-0.27550023794174194
1717013158157325000,10.553324951171875,0.36713001132011414,-0.21135938167572021,-0.2474004179239273
1717013158197272300,10.593272216796874,0.2376265823841095,-0.5088507533073425,-0.16371189057826996
1717013158237278500,10.633278564453125,0.1368338167667389,-0.6682865619659424,-0.1563815027475357
1717013158277290000,10.6732900390625,0.02382374368607998,-0.5876523852348328,-0.2070833146572113
1717013158317268200,10.713268310546875,-0.34574973583221436,-0.24129177629947662,0.06475171446800232
1717013158357273900,10.75327392578125,-0.3805690407752991,-0.29016098380088806,0.455705463886261
1717013158397285000,10.79328515625,-0.04092797264456749,-0.504574716091156,0.2840523421764374
1717013158437293600,10.83329345703125,-0.10201449692249298,-0.39584067463874817,0.14233160018920898
1717013158477266700,10.8732666015625,-0.014049900695681572,-0.4447098970413208,0.3500257730484009
1717013158517278000,10.91327783203125,-0.1569923609495163,-0.5699372887611389,0.39584067463874817
1717013158557286700,10.95328662109375,-0.27488934993743896,-0.8338310718536377,0.46303585171699524
1717013158597261600,10.993261474609374,-0.5369505286216736,-0.9456194043159485,0.4599815309047699
1717013158637273000,11.033273193359374,-0.7648032903671265,-0.9071348905563354,0.3225368559360504
1717013158677283800,11.073283935546876,-1.1844676733016968,-0.837496280670166,0.34147366881370544
1717013158717287400,11.113287353515625,-1.6389514207839966,-0.8069530129432678,0.4593706727027893
1717013158757270500,11.1532705078125,-2.233323335647583,-0.8747590184211731,0.6053674817085266
1717013158797279200,11.193279296875,-2.39825701713562,-0.8894197940826416,0.4404338300228119
1717013158837284600,11.23328466796875,-2.2992968559265137,-0.7910705208778381,-0.12095131725072861
1717013158877296000,11.273296142578126,-2.4501805305480957,-0.6120869517326355,-0.09957103431224823
1717013158917274400,11.3132744140625,-2.0977113246917725,-0.9669997096061707,0.2987131178379059
1717013158957279700,11.35327978515625,-2.1600193977355957,-1.1062769889831543,0.3695734739303589
1717013158997291500,11.39329150390625,-2.3548855781555176,-1.281595230102539,-0.0659734457731247
1717013159037269500,11.43326953125,-2.3035728931427,-0.6517932415008545,-0.8124507665634155
1717013159077272800,11.47327294921875,-1.8380935192108154,-0.5589417219161987,-0.4642575979232788
1717013159117284600,11.51328466796875,-1.2473868131637573,-1.8197675943374634,0.28038713335990906
1717013159157292300,11.553292236328126,-1.8234328031539917,-1.9437731504440308,-0.0006108652451075613
1717013159197269800,11.593269775390626,-2.199725866317749,-0.2889392673969269,-0.7165449261665344
1717013159237279200,11.633279296875,-1.5467108488082886,1.9523253440856934,-1.4844025373458862
1717013159277289700,11.673289794921875,0.5064072608947754,2.191784381866455,0.23090706765651703
1717013159317265200,11.71326513671875,0.2070833146572113,0.2620611786842346,0.8307767510414124
1717013159357279000,11.753279052734374,-0.36163222789764404,-0.6737843751907349,0.7049384713172913
1717013159397285000,11.79328515625,-0.2730567753314972,-0.5229006409645081,0.07269296050071716
1717013159437288400,11.833288330078124,-0.40133845806121826,-0.49357911944389343,-0.24373523890972137
1717013159477271600,11.873271484375,-0.598647952079773,-0.8649851679801941,-0.06841690838336945
1717013159517280000,11.913280029296875,-0.3842342495918274,-0.9938777685165405,-0.04703662544488907
1717013159557283600,11.95328369140625,-0.23518311977386475,-0.4715879559516907,-0.5729916095733643
1717013159597266700,11.9932666015625,-0.7354817390441895,0.9902125597000122,-1.2962560653686523
1717013159637273000,12.033273193359374,-0.2541199326515198,1.8661932945251465,-0.7128797173500061
1717013159677280800,12.07328076171875,0.607200026512146,0.2021963894367218,0.7079927921295166
1717013159717292500,12.11329248046875,0.2889392673969269,-0.7269296646118164,0.9810495972633362
1717013159757270300,12.153270263671875,-0.15882496535778046,-0.38728857040405273,0.39645153284072876
1717013159797276200,12.193276123046875,-0.41722095012664795,0.11484266817569733,-0.17043140530586243
1717013159837287700,12.23328759765625,-0.3982841372489929,0.44104471802711487,-0.3219259977340698
1717013159877295900,12.2732958984375,-0.10262536257505417,0.5968153476715088,-0.24617868661880493
1717013159917271300,12.313271240234375,0.04764748737215996,0.5497786998748779,-0.16432274878025055
1717013159957282600,12.353282470703125,0.17104226350784302,0.6395758986473083,-0.11178833991289139
1717013159997291300,12.393291259765626,0.7043276429176331,0.4746423065662384,0.02871066704392433
1717013160037266700,12.4332666015625,0.8894197940826416,-0.18081611394882202,0.20830504596233368
1717013160077278000,12.47327783203125,0.9914342761039734,-0.11972958594560623,-0.08429940044879913
1717013160117286700,12.51328662109375,1.171028733253479,0.3854559659957886,-0.3933972120285034
1717013160157289500,12.55328955078125,1.3799445629119873,0.17837265133857727,-0.20036379992961884
1717013160197270300,12.593270263671876,1.7171422243118286,-0.1111774742603302,-0.08674286305904388
1717013160237279200,12.633279296875,2.096489429473877,0.1508837193250656,0.00366519158706069
1717013160277285000,12.67328515625,1.9058995246887207,0.2968805134296417,-0.0708603709936142
1717013160317266000,12.713265869140624,1.7843374013900757,1.2528846263885498,-0.35124751925468445
1717013160357274600,12.753274658203125,2.0036380290985107,1.2015719413757324,0.4392121136188507
1717013160397280300,12.7932802734375,2.3854286670684814,0.2382374405860901,1.1172724962234497
1717013160437291500,12.83329150390625,2.1649065017700195,-0.1319468915462494,1.1985175609588623
1717013160477271800,12.873271728515626,2.2675318717956543,-0.29077184200286865,1.207680583000183
1717013160517277400,12.91327734375,2.129476308822632,0.6511823534965515,-0.5112941861152649
1717013160557288700,12.953288818359376,2.4935519695281982,0.6615670323371887,0.1722639948129654
1717013160597267000,12.993266845703126,2.241875410079956,-0.025045474991202354,0.01466076634824276
1717013160637272600,13.0332724609375,2.021353006362915,1.0531316995620728,-0.5180137157440186
1717013160677282000,13.073281982421875,1.8112154006958008,0.8161159753799438,0.015882495790719986
1717013160717290800,13.113290771484374,1.120937705039978,1.0714576244354248,-0.5815436840057373
1717013160757265400,13.153265380859375,0.7953465580940247,1.2308934926986694,0.07024950534105301
1717013160797277000,13.19327685546875,0.3323107063770294,0.3732386529445648,0.5619960427284241
1717013160837285400,13.233285400390624,0.1569923609495163,0.6780604124069214,-0.675006091594696
1717013160877291000,13.273291015625,-0.021380282938480377,1.4398094415664673,-1.2205088138580322
1717013160917271800,13.313271728515625,-0.25595253705978394,1.8154915571212769,-0.38728857040405273
1717013160957280500,13.353280517578124,-0.24190263450145721,2.1960606575012207,-0.494189977645874
1717013160997288200,13.3932880859375,-0.00855211354792118,1.9364428520202637,-0.3878994286060333
1717013161037269200,13.433269287109376,-0.07696902006864548,0.38117989897727966,-0.4996877610683441
1717013161077278000,13.47327783203125,0.08307767659425735,-1.5137240886688232,-0.8723155856132507
1717013161117283600,13.51328369140625,0.5528330206871033,-2.099543809890747,-0.4746423065662384
1717013161157294600,13.553294677734375,0.2028072625398636,-0.6017022728919983,0.17104226350784302
1717013161197272300,13.593272216796874,-0.4593706727027893,1.8093829154968262,0.1771509200334549
1717013161237278500,13.633278564453125,-0.34147366881370544,2.3884830474853516,0.07208210229873657
1717013161277290000,13.6732900390625,-0.6701191663742065,1.6022995710372925,-0.3640756905078888
1717013161317266000,13.713265869140624,-0.5522221922874451,0.1722639948129654,-0.5320636034011841
1717013161357273300,13.7532734375,-0.1918116807937622,-0.6866125464439392,-0.38667771220207214
1717013161397285000,13.79328515625,0.042760565876960754,-0.17959438264369965,0.013439035043120384
1717013161437293300,13.833293212890625,0.20463985204696655,0.00427605677396059,0.3604104816913605
1717013161477268500,13.8732685546875,0.11789698898792267,-0.21319197118282318,0.3842342495918274
1717013161517280000,13.913280029296875,0.09896016865968704,-0.17531833052635193,0.03848451003432274
1717013161557289000,13.9532890625,0.19120082259178162,0.024434609338641167,-0.09834930300712585
1717013161597264000,13.993263916015625,0.13316862285137177,-0.05864306539297104,0.045204028487205505
1717013161637275400,14.033275390625,0.23640485107898712,-0.15271630883216858,0.02321287989616394
1717013161677283800,14.073283935546876,0.413555771112442,-0.04398229718208313,-0.013439035043120384
1717013161717289700,14.113289794921876,0.38728857040405273,-0.20891591906547546,0.07452555745840073
1717013161757270300,14.153270263671875,0.303600013256073,-0.44837507605552673,0.15027284622192383
1717013161797279000,14.193279052734376,0.09285151958465576,-0.53328537940979,0.045204028487205505
1717013161837284600,14.23328466796875,0.045204028487205505,-0.24129177629947662,-0.21930062770843506
1717013161877295900,14.2732958984375,0.06230825558304787,0.27488934993743896,-0.6304129362106323
1717013161917274400,14.3132744140625,-0.19914206862449646,0.6059783101081848,-0.9828822016716003
1717013161957279500,14.353279541015626,-0.19975294172763824,0.4349360466003418,-1.0311405658721924
1717013161997291000,14.393291015625,-0.20952677726745605,-0.35735616087913513,0.029932396486401558
1717013162037269200,14.433269287109376,-0.44226643443107605,-0.6285803318023682,0.29077184200286865
1717013162077275000,14.47327490234375,-0.5283984541893005,-0.7483099102973938,0.5852088928222656
1717013162117284000,14.5132841796875,-0.5821545720100403,-0.9871582388877869,0.7018841505050659
1717013162157322800,14.55332275390625,-1.120937705039978,-1.0299187898635864,0.9156870245933533
1717013162197267500,14.593267333984375,-1.32863187789917,-0.8484918475151062,1.0005972385406494
1717013162237281800,14.63328173828125,-1.6829338073730469,-0.8521569967269897,0.7354817390441895
1717013162277290200,14.673290283203125,-2.1337523460388184,-0.6957755088806152,0.6401867866516113
1717013162317265200,14.71326513671875,-2.085494041442871,-0.36713001132011414,0.5357288122177124
1717013162357276700,14.753276611328126,-2.3609941005706787,-0.7220427393913269,0.6407976150512695
1717013162397285000,14.79328515625,-2.433687210083008,-0.8796459436416626,0.6817256212234497
1717013162437291000,14.833291015625,-2.289522886276245,-1.0195341110229492,0.7006624341011047
1717013162477271800,14.873271728515626,-2.431854486465454,-1.5008958578109741,0.7134906053543091
1717013162517278200,14.9132783203125,-2.211332082748413,-2.83074951171875,1.0879509449005127
1717013162557285600,14.95328564453125,-2.4575109481811523,-2.9523117542266846,1.10139000415802
1717013162597264600,14.9932646484375,-1.8558086156845093,-2.1820106506347656,0.38606682419776917
1717013162637273000,15.033273193359374,-1.6291775703430176,-1.5045610666275024,-0.34697145223617554
1717013162677279000,15.073279052734375,-1.387274980545044,-0.7324274182319641,-1.0384708642959595
1717013162717290500,15.11329052734375,-1.3585642576217651,0.24862214922904968,-1.521665334701538
1717013162757268500,15.1532685546875,-0.6065891981124878,-0.16798794269561768,-0.5546656250953674
1717013162797276000,15.19327587890625,-0.7086036801338196,-2.094046115875244,-0.3933972120285034
1717013162837287400,15.233287353515625,-1.357953429222107,-0.8625417351722717,-1.6212363243103027
1717013162877294300,15.27329443359375,-0.9950994849205017,2.499049663543701,-2.5198190212249756
1717013162917269500,15.31326953125,0.24923302233219147,3.4941492080688477,-0.8991936445236206
1717013162957282600,15.353282470703125,1.3713924884796143,1.9462167024612427,0.47769662737846375
1717013162997291300,15.393291259765626,0.9419541954994202,0.08735372871160507,0.9266825914382935
1717013163037266400,15.433266357421875,-0.13439035415649414,-0.4691445231437683,0.7183775305747986
1717013163077277700,15.473277587890625,-0.5149593949317932,-0.627358615398407,0.4239404797554016
1717013163117286700,15.51328662109375,-0.7874053120613098,-0.50335294008255,0.028099801391363144
1717013163157291500,15.55329150390625,-0.7733554244041443,-0.7281513810157776,-0.0757472887635231
1717013163197272600,15.5932724609375,-0.5088507533073425,-0.5149593949317932,-0.3237585723400116
1717013163237281300,15.63328125,-0.48869219422340393,0.779464066028595,-0.9059131741523743
1717013163277285000,15.67328515625,-0.19975294172763824,1.5369369983673096,-0.5009095072746277
1717013163317268000,15.71326806640625,0.8014551997184753,0.29993483424186707,0.6994407176971436
1717013163357276400,15.7532763671875,0.66584312915802,-1.2687671184539795,1.0005972385406494
1717013163397282000,15.793281982421876,-0.2321287989616394,-0.808174729347229,0.36102136969566345
1717013163437293600,15.83329345703125,-0.5687155723571777,0.2376265823841095,-0.46303585171699524
1717013163477271600,15.873271484375,-0.5797111392021179,0.2932153046131134,-0.4660901725292206
1717013163517275400,15.913275390625,-0.3084869384765625,-0.04214970022439957,0.015271631069481373
1717013163557288700,15.953288818359376,0.01160643994808197,-0.10445795953273773,0.0861319974064827
1717013163597267000,15.993266845703126,0.11789698898792267,-0.11911872029304504,0.056810468435287476
1717013163637270300,16.033270263671874,-0.1111774742603302,0.00366519158706069,0.646906316280365
1717013163677283800,16.073283935546876,0.5009095072746277,-0.8527678847312927,1.7592918872833252
1717013163717292500,16.11329248046875,1.1643091440200806,-0.5381723046302795,1.4471397399902344
1717013163757267700,16.153267822265626,1.644449234008789,0.8497135639190674,0.7165449261665344
1717013163797277000,16.19327685546875,2.1813998222351074,0.5393940210342407,0.3396410644054413
1717013163837285600,16.23328564453125,2.090380907058716,0.5894849896430969,-0.4196644127368927
1717013163876866000,16.272865966796875,2.7708847522735596,2.56563401222229,-1.1349875926971436
1717013163916846800,16.312846923828126,2.8368582725524902,1.4721852540969849,-0.7721336483955383
1717013163956855600,16.35285546875,3.090367317199707,0.36102136969566345,-0.40683624148368835
1717013163996861000,16.39286083984375,2.7531697750091553,-0.19058994948863983,0.04337143152952194
1717013164036842000,16.432842041015626,1.996307611465454,0.7220427393913269,-0.5442809462547302
1717013164076850700,16.4728505859375,2.2406537532806396,0.26083946228027344,0.15821409225463867
1717013164116858400,16.5128583984375,1.7678439617156982,-0.23640485107898712,0.03420845419168472
1717013164156869400,16.552869384765625,1.9712620973587036,-0.6627888083457947,0.8148942589759827
1717013164196847600,16.59284765625,2.0250182151794434,-0.5968153476715088,0.7470881938934326
1717013164236853000,16.63285302734375,1.7299703359603882,0.7422012686729431,-0.43188172578811646
1717013164276862500,16.672862548828125,1.4501941204071045,0.6139195561408997,0.23457226157188416
1717013164316840700,16.7128408203125,1.3237450122833252,-0.09468411654233932,0.6536257863044739
1717013164356846300,16.752846435546875,1.092837929725647,0.24984388053417206,-0.03176499158143997
1717013164396857900,16.79285791015625,0.8546004891395569,0.9224064946174622,-0.3341432809829712
1717013164436866000,16.832865966796874,0.9028588533401489,1.0231993198394775,-0.8900306820869446
1717013164476841200,16.87284130859375,0.8289441466331482,0.8069530129432678,-1.2571606636047363
1717013164516852700,16.912852783203125,0.1215621829032898,0.9651671051979065,-0.6029239892959595
1717013164556863500,16.952863525390626,-0.38728857040405273,1.3732250928878784,-0.2932153046131134
1717013164596838700,16.992838623046875,-0.27122417092323303,1.073290228843689,-0.3543018400669098
1717013164636850000,17.032849853515625,0.18570303916931152,0.7269296646118164,-0.5656611919403076
1717013164676858600,17.072858642578126,0.3695734739303589,0.9059131741523743,-0.2028072625398636
1717013164716864300,17.1128642578125,0.23273965716362,0.04642575979232788,0.8155050873756409
1717013164756845000,17.152844970703125,-0.27977627515792847,-0.6059783101081848,1.081842303276062
1717013164796853800,17.192853759765626,-0.4715879559516907,0.04703662544488907,0.1765400618314743
1717013164836859100,17.232859130859374,-0.2974913716316223,0.788627028465271,-0.9474520087242126
1717013164876871000,17.272870849609376,-0.26083946228027344,1.2223412990570068,-1.2889256477355957
1717013164916849200,17.31284912109375,-0.11545353382825851,1.0348057746887207,-0.7965682744979858
1717013164956854500,17.3528544921875,-0.06719517707824707,0.25106561183929443,0.01466076634824276
1717013164996865800,17.39286572265625,-0.03237585723400116,-0.323147714138031,0.42210787534713745
1717013165036844000,17.432843994140626,0.1258382350206375,-0.251676470041275,0.1814269721508026
1717013165076849700,17.472849609375,0.19547687470912933,0.04153883829712868,-0.40744712948799133
1717013165116861400,17.512861328125,0.1417207419872284,0.19303341209888458,-0.49296826124191284
1717013165156869400,17.552869384765625,0.13744467496871948,0.17348572611808777,-0.36529740691185
1717013165196844000,17.592843994140626,0.24068090319633484,0.021380282938480377,-0.3182607889175415
1717013165236856000,17.63285595703125,0.19303341209888458,-0.06414084881544113,-0.3390302062034607
1717013165276864800,17.67286474609375,0.17104226350784302,-0.06841690838336945,-0.19303341209888458
1717013165316837600,17.712837646484374,0.1661553531885147,-0.29565876722335815,0.16310101747512817
1717013165356849200,17.75284912109375,-0.1612684279680252,-0.4349360466003418,0.14477506279945374
1717013165396857600,17.792857666015625,-0.6200281977653503,-1.1239920854568481,0.403781920671463
1717013165436863200,17.83286328125,-1.179580807685852,-1.1734721660614014,0.47830748558044434
1717013165476844500,17.872844482421876,-1.690264105796814,-0.7342600226402283,0.4080579876899719
1717013165516855300,17.912855224609373,-2.3322834968566895,-0.37201693654060364,0.48747047781944275
1717013165556860700,17.952860595703125,-2.6456573009490967,-0.4153883755207062,0.43737950921058655
1717013165596841700,17.992841796875,-2.8289170265197754,-0.0861319974064827,0.2718350291252136
1717013165636850200,18.03285009765625,-2.936429262161255,0.14294247329235077,0.2638937830924988
1717013165676855800,18.072855712890625,-2.7317893505096436,0.03237585723400116,0.36224308609962463
1717013165716867300,18.112867431640623,-2.5668556690216064,-0.02687807008624077,0.29504790902137756
1717013165756845300,18.15284521484375,-2.1704041957855225,-0.13988813757896423,0.20525072515010834
1717013165796848600,18.1928486328125,-2.0024163722991943,-0.3787364661693573,0.4746423065662384
1717013165836860400,18.2328603515625,-2.1282544136047363,-0.5797111392021179,0.4905247986316681
1717013165876869000,18.272869140625,-2.0897700786590576,-0.4813618063926697,0.5406157374382019
1717013165916844000,18.312843994140625,-1.8698585033416748,-0.9059131741523743,0.6291912198066711
1717013165956855600,18.35285546875,-1.5363260507583618,-1.074512004852295,0.5577199459075928
1717013165996864000,18.392864013671876,-1.0775662660598755,-1.2687671184539795,0.7617489695549011
1717013166036841000,18.432841064453125,-1.0128145217895508,-1.2950342893600464,0.0507018156349659
1717013166076850400,18.472850341796875,-0.15332718193531036,-1.7519614696502686,-0.2577851414680481
1717013166116859000,18.51285888671875,-0.4807509481906891,-1.0525208711624146,-0.2565633952617645
1717013166156895000,18.55289501953125,-0.33169981837272644,0.3701843321323395,-0.6291912198066711
1717013166196845000,18.592844970703126,-0.5528330206871033,0.543059229850769,-0.799011766910553
1717013166236854000,18.63285400390625,0.015882495790719986,0.07941248267889023,-0.32070425152778625
1717013166276861700,18.67286181640625,-0.09529497474431992,-0.1258382350206375,-0.6585127115249634
1717013166316842800,18.7128427734375,-0.9914342761039734,1.2315043210983276,-1.330464482307434
1717013166356849200,18.75284912109375,-1.0366383790969849,2.481334686279297,-0.8539896011352539
1717013166396857000,18.792857177734376,1.4233160018920898,1.9511035680770874,0.7324274182319641
1717013166436868600,18.83286865234375,1.7831156253814697,0.045204028487205505,0.3787364661693573
1717013166476846600,18.8728466796875,0.9156870245933533,-0.5009095072746277,-0.41233405470848083
1717013166516850000,18.912849853515624,0.03298672288656235,0.056810468435287476,-0.7244861721992493
1717013166556861400,18.952861328125,-0.40072759985923767,-0.11239920556545258,-0.2981022298336029
1717013166596841700,18.992841796875,-0.8161159753799438,-0.3689626157283783,0.09712757170200348
1717013166636847400,19.032847412109376,-0.8118399381637573,-0.6401867866516113,0.029932396486401558
1717013166676858600,19.072858642578126,-0.5247332453727722,-0.0806342139840126,-0.5112941861152649
1717013166716867300,19.112867431640623,-0.20525072515010834,0.8558222055435181,-0.5644394755363464
1717013166756840000,19.15283984375,0.4740314185619354,0.7281513810157776,0.3445279896259308
1717013166796853800,19.192853759765626,0.8344419002532959,-0.523511528968811,0.9724974632263184
1717013166836862200,19.2328623046875,0.22907446324825287,-0.8692612648010254,0.8118399381637573
1717013166876867800,19.272867919921875,-0.24495697021484375,-0.13316862285137177,0.21991148591041565
1717013166916849200,19.31284912109375,-0.42271876335144043,0.1661553531885147,-0.06291911751031876
1717013166956857600,19.352857666015623,-0.5057964324951172,0.18631389737129211,0.07880161702632904
1717013166996863200,19.39286328125,-0.37690386176109314,0.23396138846874237,0.21319197118282318
1717013167036841700,19.432841796875,0.06169738993048668,0.2278527319431305,0.29504790902137756
1717013167076850400,19.472850341796875,0.4080579876899719,0.11362093687057495,0.5381723046302795
1717013167116858400,19.5128583984375,0.9944885969161987,-0.1820378452539444,0.7849618196487427
1717013167156867000,19.5528671875,1.580308437347412,-0.4954117238521576,0.7507534027099609
1717013167196845300,19.59284521484375,1.6566665172576904,-0.29565876722335815,0.5809328556060791
1717013167236853500,19.632853515625,1.8332066535949707,0.06536258012056351,0.4153883755207062
1717013167276865000,19.672864990234373,2.3212878704071045,0.44654250144958496,-0.07941248267889023
1717013167316843000,19.712843017578123,2.5980098247528076,0.8136724829673767,-0.43615779280662537
1717013167356848400,19.752848388671875,2.7488934993743896,1.0317513942718506,0.17959438264369965
1717013167396860000,19.79285986328125,2.777604341506958,-0.12828169763088226,1.2492194175720215
1717013167436868600,19.83286865234375,3.221703290939331,-1.2388347387313843,1.7745635509490967
1717013167476843500,19.872843505859375,2.680476665496826,-0.9651671051979065,1.3054190874099731
1717013167516855300,19.912855224609373,1.977981686592102,-0.39156460762023926,1.674992561340332
1717013167556863500,19.952863525390626,1.693318486213684,0.1007927656173706,1.5253305435180664
1717013167596838700,19.992838623046875,2.810590982437134,1.6951510906219482,-0.4251621961593628
1717013167636850200,20.03285009765625,3.000570058822632,0.7104362845420837,0.6988298296928406
1717013167676859000,20.07285888671875,1.7904460430145264,1.5143349170684814,-1.301142930984497
1717013167716864500,20.112864501953126,1.598023533821106,2.863736152648926,-2.3347270488739014
1717013167756843300,20.15284326171875,1.3127493858337402,0.6304129362106323,0.019547687843441963
1717013167796853800,20.192853759765626,0.3237585723400116,-0.14049901068210602,0.5955936312675476
1717013167836857000,20.232857177734374,0.3488040566444397,0.7434229850769043,-0.1160643994808197
1717013167876868600,20.27286865234375,0.31459560990333557,0.978606104850769,-0.23335053026676178
1717013167916846600,20.3128466796875,-0.04398229718208313,0.6536257863044739,-0.036651913076639175
1717013167956852200,20.352852294921874,-0.17776179313659668,0.2669481039047241,0.14416420459747314
1717013167996863700,20.39286376953125,-0.2871066629886627,-0.039706241339445114,0.12095131725072861
1717013168036844300,20.43284423828125,-0.28466320037841797,0.04642575979232788,-0.15943582355976105
1717013168076849400,20.472849365234374,-0.1160643994808197,0.2840523421764374,-0.6126978397369385
1717013168116861200,20.512861083984376,-0.35063666105270386,0.9908234477043152,-1.3243558406829834
1717013168156867000,20.5528671875,-0.7373143434524536,2.2962424755096436,-1.4324790239334106
1717013168196844300,20.59284423828125,-0.14416420459747314,1.5833626985549927,-0.1472185254096985
1717013168236856000,20.63285595703125,-0.41599923372268677,-0.15577064454555511,1.0806206464767456
1717013168276864800,20.67286474609375,-0.7250970602035522,-0.8503243923187256,1.064738154411316
1717013168316837600,20.712837646484374,-0.7751879692077637,-0.06230825558304787,-0.1014036312699318
1717013168356849200,20.75284912109375,-0.4642575979232788,0.9584475755691528,-1.2589932680130005
1717013168396857900,20.79285791015625,-0.39645153284072876,1.4031574726104736,-1.4428637027740479
1717013168436863200,20.83286328125,-0.25473082065582275,1.0867292881011963,-0.6200281977653503
1717013168476844000,20.872843994140624,0.12828169763088226,0.22846360504627228,0.11056660860776901
1717013168516855000,20.91285498046875,0.28099802136421204,-0.37079519033432007,0.3390302062034607
1717013168556860400,20.9528603515625,0.3677408695220947,-0.33597588539123535,0.10018189996480942
1717013168596841700,20.992841796875,0.40072759985923767,0.14233160018920898,-0.384845107793808
1717013168636850000,21.032849853515625,0.08552113175392151,0.4251621961593628,-0.3066543638706207
1717013168676855600,21.07285546875,-0.00366519158706069,0.5858197808265686,-0.8387179970741272
1717013168716865000,21.112864990234375,0.3237585723400116,0.3439171314239502,-0.7153232097625732
1717013168756843000,21.152843017578125,0.20525072515010834,-0.10934487730264664,-0.7819074988365173
1717013168796848400,21.192848388671877,0.4746423065662384,-0.8527678847312927,-0.394618958234787
1717013168836860200,21.232860107421875,-0.17287486791610718,-1.5900822877883911,0.23579397797584534
1717013168876868600,21.27286865234375,-1.244943380355835,-1.2315043210983276,0.5393940210342407
1717013168916843800,21.31284375,-1.9138407707214355,-0.43799036741256714,0.6884451508522034
1717013168956857600,21.352857666015623,-2.3793201446533203,-0.3090978264808655,0.8246681094169617
1717013168996866000,21.392865966796876,-2.548529863357544,-0.31093040108680725,0.6957755088806152
1717013169036841500,21.432841552734374,-2.621833562850952,-0.32009339332580566,0.6090326309204102
1717013169076852700,21.472852783203123,-2.6450464725494385,-0.3029891550540924,0.5766568183898926
1717013169116861400,21.512861328125,-2.524095296859741,-0.5943718552589417,0.48319441080093384
1717013169156866300,21.5528662109375,-2.4446825981140137,-0.6200281977653503,0.41172316670417786
1717013169196847400,21.592847412109375,-2.313957452774048,-0.4899139404296875,0.17531833052635193
1717013169236856300,21.632856201171876,-2.2211060523986816,-0.5192354321479797,0.5442809462547302
1717013169276862000,21.672862060546876,-2.336559534072876,-0.8839219808578491,0.7122688889503479
1717013169316843000,21.712843017578123,-2.073887586593628,-0.5125159621238708,0.47280970215797424
1717013169356849400,21.752849365234376,-1.8936822414398193,-0.43615779280662537,0.3903428912162781
1717013169396855000,21.79285498046875,-1.6285667419433594,-0.29565876722335815,0.08918632566928864
1717013169436866300,21.8328662109375,-1.1808024644851685,-0.3188716471195221,0.2620611786842346
1717013169476844500,21.872844482421876,-1.2602150440216064,-0.6200281977653503,0.01710422709584236
1717013169516850000,21.912849853515624,-1.4605787992477417,-0.5259549617767334,-0.19547687470912933
1717013169556861700,21.95286181640625,-1.102611780166626,0.05742133408784866,-0.5210680365562439
1717013169596839700,21.992839599609376,-1.015868902206421,0.9046914577484131,-0.9902125597000122
1717013169636845000,22.032844970703124,-0.27000242471694946,0.5015203952789307,-0.6969972252845764
1717013169676856300,22.072856201171874,-0.13805554807186127,0.1820378452539444,-0.7141014933586121
1717013169716867300,22.112867431640623,-0.10812314599752426,-0.3078760802745819,-0.9450085163116455
1717013169756842200,22.15284228515625,-0.8729264140129089,0.6591235995292664,-1.356731653213501
1717013169796852500,22.1928525390625,-0.31459560990333557,1.4868459701538086,-0.5577199459075928
1717013169836862200,22.2328623046875,1.786780834197998,0.7409795522689819,0.8112290501594543
1717013169876866000,22.272865966796875,1.6212363243103027,-0.5283984541893005,0.30115658044815063
1717013169916849200,22.31284912109375,0.1270599663257599,-0.3604104816913605,-0.11789698898792267
1717013169956857300,22.352857421875,-0.19425514340400696,-0.34574973583221436,0.04459316283464432
1717013169996861000,22.39286083984375,-0.5473352670669556,-0.2987131178379059,0.34025195240974426
1717013170036844300,22.43284423828125,-0.9859365224838257,-0.2926044464111328,0.08429940044879913
1717013170076852700,22.472852783203123,-0.6139195561408997,-0.6200281977653503,-0.08429940044879913
1717013170116858400,22.5128583984375,-0.4709770977497101,-0.1472185254096985,-0.44776421785354614
1717013170156899600,22.552899658203124,-0.5027421116828918,0.7061602473258972,-0.2638937830924988
1717013170196845000,22.592844970703126,0.3225368559360504,0.6444628238677979,0.5351179838180542
1717013170236853000,22.63285302734375,0.8552113175392151,-0.3274237811565399,0.9340129494667053
1717013170276864800,22.67286474609375,0.029932396486401558,-0.5705481171607971,0.44837507605552673
1717013170316843000,22.712843017578123,-0.5241223573684692,0,-0.16493362188339233
1717013170356848400,22.752848388671875,-0.7544185519218445,0.2730567753314972,-0.1661553531885147
1717013170396857900,22.79285791015625,-0.7177666425704956,0.24984388053417206,0.33597588539123535
1717013170436867000,22.8328671875,-0.3689626157283783,-0.10690141469240189,0.8637634515762329
1717013170476842000,22.872842041015623,0.21868975460529327,-0.3628539443016052,0.7360926270484924
1717013170516855800,22.912855712890625,1.2443325519561768,-0.4489859640598297,0.656680166721344
1717013170556865800,22.95286572265625,1.9529361724853516,-0.39095374941825867,0.4141666293144226
1717013170596836900,22.9928369140625,2.20583438873291,-0.523511528968811,0.24373523890972137
1717013170636848000,23.03284814453125,2.2064452171325684,-0.19364428520202637,-0.05619960278272629
1717013170676856600,23.072856689453126,2.2345449924468994,0.523511528968811,-0.31520646810531616
1717013170716862200,23.1128623046875,1.949881911277771,0.6010913848876953,-0.19853121042251587
1717013170756843300,23.15284326171875,2.004248857498169,0.8100073337554932,0.38240164518356323
1717013170796851700,23.192851806640626,1.5998560190200806,0.30970868468284607,1.5900822877883911
1717013170836857000,23.232857177734374,0.6188064813613892,1.7660114765167236,0.23396138846874237
1717013170876868900,23.272868896484376,1.178359031677246,1.663996934890747,-1.455691933631897
1717013170916846600,23.3128466796875,1.0910053253173828,0.16982053220272064,-0.6780604124069214
1717013170956852500,23.3528525390625,1.910786509513855,-1.036027431488037,0.5699372887611389
1717013170996866000,23.392865966796876,2.1068742275238037,1.1105530261993408,-1.3683381080627441
1717013171036844300,23.43284423828125,2.602285861968994,0.34025195240974426,-1.1368201971054077
1717013171076849700,23.472849609375,2.8069257736206055,-0.6255260109901428,-0.6994407176971436
1717013171116859100,23.512859130859376,2.7207937240600586,0.0024434609804302454,-0.3549126982688904
1717013171156867300,23.552867431640625,2.4685065746307373,-0.3029891550540924,0.015882495790719986
1717013171196842200,23.59284228515625,1.4819591045379639,0.11056660860776901,0.3378084897994995
1717013171236854000,23.63285400390625,0.8313875794410706,1.0671815872192383,0.08979719132184982
1717013171276862500,23.672862548828125,0.788016140460968,1.4391984939575195,-0.9352346658706665
1717013171316837600,23.712837646484374,0.5229006409645081,1.2180652618408203,-0.7244861721992493
1717013171356849200,23.75284912109375,0.45692721009254456,1.5729780197143555,-0.8802568316459656
1717013171396860000,23.79285986328125,0.6963863968849182,1.9614882469177246,-1.282817006111145
1717013171436865500,23.832865478515625,0.7336491346359253,1.0390818119049072,-1.0726794004440308
1717013171476846300,23.872846435546876,1.0134254693984985,-0.5601634383201599,-0.4550946056842804
1717013171516855300,23.912855224609373,1.4080443382263184,-1.4391984939575195,0.26450464129447937
1717013171556860700,23.952860595703125,0.7220427393913269,-1.2858713865280151,1.2235630750656128
1717013171596841500,23.992841552734376,-0.6762278079986572,-0.513126790523529,1.8643606901168823
1717013171636847900,24.032847900390625,-1.2498302459716797,0.9669997096061707,1.2681562900543213
1717013171676855800,24.072855712890625,-0.43737950921058655,1.4379768371582031,0.28955012559890747
1717013171716867300,24.112867431640623,-0.2877175211906433,1.0757336616516113,-0.4502076804637909
1717013171756845000,24.152844970703125,-0.4184426963329315,-0.048258353024721146,-0.3536909818649292
1717013171796851000,24.192850830078125,-0.7275404930114746,-0.08185594528913498,-0.3604104816913605
1717013171836860400,24.2328603515625,-0.8185594081878662,0.6774495840072632,-0.46547931432724
1717013171876868900,24.272868896484376,-0.7293730974197388,1.0445796251296997,-0.3640756905078888
1717013171916843800,24.31284375,-0.23640485107898712,0.5265658497810364,-0.39584067463874817
1717013171956857000,24.352857177734375,0.16249015927314758,-0.0555887371301651,-0.4141666293144226
1717013171996866000,24.392865966796876,0.33047810196876526,-0.35124751925468445,-0.20402899384498596
1717013172036839200,24.432839111328125,0.513126790523529,0.5797111392021179,-0.6927211880683899
1717013172076852500,24.4728525390625,-0.4196644127368927,1.2113457918167114,-1.580308437347412
1717013172116861400,24.512861328125,-0.8845328688621521,0.4550946056842804,-1.1997393369674683
1717013172156866300,24.5528662109375,-0.49296826124191284,0.10873401165008545,-0.5418374538421631
1717013172196847400,24.592847412109375,-0.17837265133857727,-0.16859880089759827,0.08246681094169617
1717013172236854000,24.63285400390625,-0.30543261766433716,-0.342695415019989,0.485027015209198
1717013172276859600,24.672859619140624,-0.24190263450145721,-0.1569923609495163,0.5467243790626526
1717013172316840700,24.7128408203125,-0.6352998614311218,-0.39156460762023926,0.9138544201850891
1717013172356849200,24.75284912109375,-1.0983357429504395,-0.675006091594696,1.3274102210998535
1717013172396854800,24.792854736328124,-1.2027937173843384,-0.618195652961731,1.386053204536438
1717013172436866000,24.832865966796874,-1.2455542087554932,-0.665232241153717,1.2663236856460571
1717013172476844300,24.87284423828125,-1.4343116283416748,-1.0348057746887207,1.500285029411316
1717013172516850000,24.912849853515624,-1.5485434532165527,-1.2431107759475708,1.5357152223587036
1717013172556861400,24.952861328125,-2.0818288326263428,-1.2290608882904053,1.3781119585037231
1717013172596841700,24.992841796875,-2.512488842010498,-0.7483099102973938,1.1905763149261475
1717013172636847400,25.032847412109376,-2.7146852016448975,-0.20830504596233368,0.8631525635719299
1717013172676859000,25.07285888671875,-2.7030787467956543,-0.3274237811565399,0.7910705208778381
1717013172716867600,25.11286767578125,-2.677422285079956,-0.4508185386657715,0.8350527882575989
1717013172756840200,25.152840087890624,-2.5448646545410156,-0.8026769161224365,0.9346238374710083
1717013172796851700,25.192851806640626,-2.4575109481811523,-0.9175195693969727,0.7898487448692322
1717013172836860400,25.2328603515625,-2.1905627250671387,-0.8234463334083557,0.6151412725448608
1717013172876866000,25.272865966796875,-1.9022343158721924,-1.06657075881958,0.3628539443016052
1717013172916846800,25.312846923828126,-1.7702875137329102,-0.6053674817085266,-0.06291911751031876
1717013172956855300,25.352855224609375,-1.663996934890747,-0.0354301854968071,-0.4251621961593628
1717013172996861200,25.392861083984375,-1.207680583000183,0.02626720629632473,-0.5729916095733643
1717013173036842000,25.432842041015626,-0.8326093554496765,0.2926044464111328,-0.484416127204895
1717013173076852700,25.472852783203123,-0.17348572611808777,0.3494149148464203,-0.025045474991202354
1717013173116858000,25.512858154296875,-0.01160643994808197,-0.4440990388393402,0.10751228034496307
1717013173156869000,25.552869140625,-0.7067710757255554,0.14294247329235077,-0.5106833577156067
1717013173196845000,25.592844970703126,-0.5461135506629944,1.7751743793487549,-0.8319984674453735
1717013173236851500,25.6328515625,0.0555887371301651,2.1594085693359375,-0.17837265133857727
1717013173276864800,25.67286474609375,1.6994271278381348,-0.4715879559516907,0.8203920125961304
1717013173316843000,25.712843017578123,0.3488040566444397,-0.27977627515792847,0.19914206862449646
1717013173356848000,25.75284814453125,-0.1466076523065567,-0.16493362188339233,-0.10384709388017654
1717013173396860000,25.79285986328125,-0.44715335965156555,-0.4184426963329315,0.08918632566928864
1717013173436868400,25.832868408203126,-0.9004153609275818,-0.4893030524253845,-0.04337143152952194
1717013173476843500,25.872843505859375,-0.8710938692092896,-0.11239920556545258,-0.27550023794174194
1717013173516855000,25.91285498046875,-0.5497786998748779,0.060475658625364304,-0.3433062732219696
1717013173556861400,25.952861328125,-0.5601634383201599,0.8197811841964722,-0.7269296646118164
1717013173596836400,25.99283642578125,0.4105014503002167,1.0390818119049072,-0.2272418737411499
1717013173636850200,26.03285009765625,0.7367035150527954,-0.10934487730264664,0.3597996234893799
1717013173676858600,26.072858642578126,0.05497787147760391,-0.2217440903186798,0.3530801236629486
1717013173716864300,26.1128642578125,-0.34025195240974426,0.3225368559360504,-0.007941247895359993
1717013173756845000,26.152844970703125,-0.5082398653030396,1.3720033168792725,-0.9645562171936035
1717013173796853800,26.192853759765626,-0.323147714138031,2.1600193977355957,-1.5155566930770874
1717013173836859400,26.232859375,0.4789183437824249,2.2321016788482666,-1.397048830986023
1717013173876870700,26.27287060546875,0.2571742534637451,0.5711590051651001,-0.05619960278272629
1717013173916846600,26.3128466796875,0.05864306539297104,0.7641924023628235,-0.33597588539123535
1717013173956852200,26.352852294921874,0.41599923372268677,1.2424999475479126,-0.5442809462547302
1717013173996863700,26.39286376953125,0.3323107063770294,1.4269812107086182,0.07819075137376785
1717013174036846000,26.43284619140625,0.14294247329235077,-0.684779942035675,1.0952813625335693
1717013174076849700,26.472849609375,-0.28955012559890747,-1.541213035583496,2.356718063354492
1717013174116861200,26.512861083984376,-0.23335053026676178,-1.3341296911239624,2.0983221530914307
1717013174156895500,26.5528955078125,0.40072759985923767,-0.31520646810531616,1.3878858089447021
1717013174196844500,26.592844482421874,1.2541064023971558,-0.09896016865968704,0.9724974632263184
1717013174236854000,26.63285400390625,2.0806069374084473,-0.11545353382825851,0.5070181488990784
1717013174276862700,26.67286279296875,2.6835310459136963,-0.9260717034339905,0.44593164324760437
1717013174316837600,26.712837646484374,3.079371690750122,-0.32131510972976685,0.4660901725292206
1717013174356849200,26.75284912109375,3.3396003246307373,0.3243694305419922,-0.27977627515792847
1717013174396857900,26.79285791015625,3.5698964595794678,0.14355333149433136,-0.5968153476715088
1717013174436863500,26.832863525390625,3.5100317001342773,0.48380526900291443,-1.2027937173843384
1717013174476844500,26.872844482421876,3.6743545532226562,-0.5100724697113037,-0.5546656250953674
1717013174516855300,26.912855224609373,3.3347134590148926,-0.6835582256317139,-1.189354658126831
1717013174556858600,26.952858642578125,3.4104607105255127,-0.2932153046131134,-0.5057964324951172
1717013174596841700,26.992841796875,2.6951375007629395,0.22663100063800812,-1.2278391122817993
1717013174636848000,27.03284814453125,2.6810874938964844,0.6768386960029602,-1.0506882667541504
1717013174676853800,27.072853759765625,2.182621479034424,-0.7342600226402283,0.8888089060783386
1717013174716865300,27.112865234375,1.3084733486175537,-1.0335839986801147,0.8784242272377014
1717013174756843300,27.15284326171875,0.7971791625022888,-0.08735372871160507,0.31154128909111023
1717013174796849000,27.192848876953125,0.5473352670669556,0.4990769028663635,0.6841690540313721
1717013174836862200,27.2328623046875,0.6279694437980652,0.8570439219474792,-0.05619960278272629
1717013174876648700,27.272648681640625,0.5161811113357544,1.2046263217926025,-1.3921618461608887
1717013174916844500,27.312844482421873,0.33108896017074585,0.22663100063800812,-0.9859365224838257
1717013174956855800,27.352855712890626,0.2987131178379059,-0.8069530129432678,0.07635815441608429
1717013174996866600,27.392866455078124,0.38117989897727966,-1.1820242404937744,0.44654250144958496
1717013175036841700,27.432841796875,0.12767083942890167,-0.6310238242149353,-0.2724458873271942
1717013175076853200,27.472853271484375,-0.4996877610683441,1.4966198205947876,-1.7079792022705078
1717013175116861700,27.51286181640625,-0.2828305959701538,2.7116308212280273,-1.4764612913131714
1717013175156864800,27.55286474609375,-0.3530801236629486,1.0280861854553223,0.384845107793808
1717013175196845800,27.592845703125,-0.3029891550540924,-0.5461135506629944,1.406822681427002
1717013175236856800,27.63285693359375,-0.24678955972194672,-0.7104362845420837,0.8448266386985779
1717013175276862500,27.672862548828125,-0.35613444447517395,-0.048258353024721146,-0.1319468915462494
1717013175316843300,27.71284326171875,-0.1966986060142517,0.5161811113357544,-0.7214318513870239
1717013175356849700,27.752849609375,-0.07024950534105301,0.6108652353286743,-0.5937610268592834
1717013175396857300,27.792857421875,0.08185594528913498,0.4086688458919525,-0.06841690838336945
1717013175436869000,27.832869140625,0.34147366881370544,-0.02382374368607998,0.20891591906547546
1717013175476847400,27.872847412109376,0.37140607833862305,-0.5222898125648499,0.2926044464111328
1717013175516852500,27.9128525390625,0.22907446324825287,-0.4605923891067505,0.036651913076639175
1717013175556864300,27.9528642578125,0.37079519033432007,-0.05864306539297104,-0.5143485069274902
1717013175596842000,27.992842041015624,0.08979719132184982,0.46853363513946533,-0.9560040831565857
1717013175636847600,28.03284765625,-0.2779437005519867,0.7031059265136719,-0.7519751191139221
1717013175676859100,28.072859130859374,-0.304210901260376,0.28955012559890747,-0.1459967941045761
1717013175716866000,28.112865966796875,-0.3494149148464203,-0.45753806829452515,0.34636059403419495
1717013175756840700,28.1528408203125,-0.34758231043815613,-0.5540547966957092,0.646295428276062
1717013175796852200,28.192852294921874,-0.7715228199958801,-0.646295428276062,0.455705463886261
1717013175836861200,28.232861083984375,-1.226617455482483,-0.5681046843528748,0.2125810980796814
1717013175876866600,28.272866455078123,-1.2791517972946167,-0.37568211555480957,0.33597588539123535
1717013175916847600,28.31284765625,-1.8832975625991821,-0.5693264007568359,0.05192354694008827
1717013175956858400,28.3528583984375,-2.4605650901794434,-0.13927727937698364,-0.25534167885780334
1717013175996864000,28.392864013671876,-2.1978931427001953,0.6774495840072632,-0.30604347586631775
1717013176036842800,28.4328427734375,-2.026850938796997,0.2174680233001709,0.608421802520752
1717013176076851500,28.4728515625,-2.182621479034424,-0.7867944240570068,0.6621779203414917
1717013176116856800,28.51285693359375,-2.3267858028411865,-1.1081095933914185,0.7935139536857605
1717013176156867800,28.552867919921876,-2.763554334640503,-1.3347405195236206,1.0213667154312134
1717013176196846000,28.59284619140625,-2.559525489807129,-1.0299187898635864,0.7898487448692322
1717013176236852000,28.63285205078125,-2.233934164047241,-1.4135421514511108,0.6511823534965515
1717013176276863200,28.67286328125,-2.2272145748138428,-1.2376129627227783,0.016493361443281174
1717013176316841500,28.712841552734375,-1.7794504165649414,-0.6591235995292664,-0.6817256212234497
1717013176356847000,28.75284716796875,-2.2272145748138428,-0.12950342893600464,-0.8875871896743774
1717013176396858600,28.792858642578125,-2.194838762283325,-0.4905247986316681,-0.11423180252313614
1717013176436867000,28.8328671875,-1.3836097717285156,-1.3781119585037231,0.2272418737411499
1717013176476844000,28.872843994140624,-1.1447614431381226,-0.9443976879119873,-0.16493362188339233
1717013176516855800,28.912855712890625,-1.3451253175735474,1.1093312501907349,-1.6957619190216064
1717013176556862000,28.952862060546874,-0.5015203952789307,2.7794368267059326,-1.3457361459732056
1717013176596839200,28.992839111328124,1.0653489828109741,1.1270463466644287,0.3628539443016052
1717013176636851000,29.032850830078125,0.6640105247497559,-0.4856378734111786,0.8283332586288452
1717013176676859400,29.072859375,-0.7336491346359253,-0.9376781582832336,0.7922922372817993
1717013176716865000,29.112864990234375,-1.1545352935791016,-0.48258355259895325,0.18448130786418915
1717013176756846000,29.15284619140625,-1.0995573997497559,-0.2840523421764374,-0.2541199326515198
1717013176796854500,29.1928544921875,-0.9077457785606384,-0.6927211880683899,-0.1508837193250656
1717013176836860200,29.232860107421875,-0.8063421249389648,-0.5473352670669556,-0.38667771220207214
1717013176876871700,29.27287158203125,-0.8704829812049866,0.675616979598999,-1.0574077367782593
1717013176916847900,29.312847900390626,-0.32620203495025635,1.5204435586929321,-0.34147366881370544
1717013176956853000,29.35285302734375,0.5375614166259766,-0.039095375686883926,0.8185594081878662
1717013176996866300,29.3928662109375,0.3799581825733185,-0.9034696817398071,0.8625417351722717
1717013177036844800,29.4328447265625,0.030543262138962746,-0.242513507604599,0.26083946228027344
1717013177076850400,29.472850341796875,-0.2474004179239273,0.2070833146572113,-0.25106561183929443
1717013177116862000,29.512862060546876,-0.26022860407829285,0.015271631069481373,-0.1215621829032898
1717013177156870100,29.5528701171875,-0.03176499158143997,0.07880161702632904,0.042760565876960754
1717013177196842800,29.5928427734375,0.13500121235847473,0.22540926933288574,-0.04948008432984352
1717013177236854800,29.632854736328124,0.3995058834552765,0.35124751925468445,-0.13011430203914642
1717013177276863200,29.67286328125,0.6829473376274109,0.09957103431224823,0.25961771607398987
1717013177316840400,29.71284033203125,0.8985827565193176,-0.18814650177955627,0.18814650177955627
1717013177356850000,29.752849853515624,0.8869763612747192,0.24556782841682434,-0.3078760802745819
1717013177396858600,29.792858642578125,1.1478158235549927,0.35063666105270386,-0.29077184200286865
1717013177436866300,29.8328662109375,1.643227458000183,0.018936822190880775,0.06230825558304787
1717013177476845000,29.872844970703124,1.9840903282165527,-0.25045475363731384,0.384845107793808
1717013177516853800,29.912853759765625,2.2681427001953125,-0.384845107793808,0.6450737118721008
1717013177556859400,29.952859375,2.8515188694000244,0.13805554807186127,0.6224716901779175
1717013177596840200,29.992840087890624,2.610227108001709,0.028099801391363144,0.46364670991897583
1717013177636849000,30.032848876953125,2.325563907623291,0.7202101349830627,0.2718350291252136
1717013177676854500,30.0728544921875,2.2204952239990234,1.0598511695861816,0.46792277693748474
1717013177716867800,30.112867919921875,2.41719388961792,0.49296826124191284,0.9914342761039734
1717013177756843800,30.15284375,2.83380389213562,-0.9388998746871948,2.0812180042266846
1717013177796851500,30.1928515625,2.2705860137939453,-0.5473352670669556,1.6212363243103027
1717013177836863000,30.232863037109375,2.348165988922119,0.33292156457901,0.5424483418464661
1717013177876871700,30.27287158203125,2.3438899517059326,-0.342695415019989,1.2834278345108032
1717013177916846600,30.3128466796875,2.155743360519409,0.5650503635406494,-0.16798794269561768
1717013177956858400,30.3528583984375,2.322509765625,0.7605272531509399,-0.22540926933288574
1717013177996866800,30.39286669921875,1.768454909324646,-0.039706241339445114,1.0812314748764038
1717013178036839700,30.432839599609373,1.7825047969818115,0.7397578358650208,0.0403171069920063
1717013178076851200,30.472851318359375,1.2620476484298706,1.0305296182632446,0.44715335965156555
1717013178116860000,30.51285986328125,0.7354817390441895,0.8491026759147644,-0.32681289315223694
1717013178156895200,30.552895263671875,0.25106561183929443,1.3353514671325684,-1.0311405658721924
1717013178196845800,30.592845703125,-0.02076941914856434,1.632842779159546,-0.7739662528038025
1717013178236854500,30.6328544921875,-0.17776179313659668,1.5234979391098022,-0.43737950921058655
1717013178276860200,30.672860107421876,-0.23518311977386475,1.0574077367782593,0.06414084881544113
1717013178316843300,30.71284326171875,-0.46547931432724,0.2070833146572113,0.4642575979232788
1717013178356852000,30.75285205078125,-0.8038986921310425,-0.5002986192703247,0.13377949595451355
1717013178396857900,30.79285791015625,-0.8460483551025391,-0.23579397797584534,-1.0170906782150269
1717013178436868900,30.832868896484374,-0.523511528968811,1.1325441598892212,-1.6682729721069336
1717013178476847000,30.87284716796875,-0.19120082259178162,1.370781660079956,-0.8240572214126587
1717013178516852700,30.912852783203125,-0.33719760179519653,0.2938261926174164,0.2681698501110077
1717013178556864000,30.952864013671874,-0.5442809462547302,-0.5503895878791809,0.6200281977653503
1717013178596842200,30.99284228515625,-0.6249151229858398,-0.3677408695220947,-0.06536258012056351
1717013178636848000,31.03284814453125,-0.6041457056999207,0.6359107494354248,-0.8332201838493347
1717013178676857000,31.072857177734374,-0.40744712948799133,1.3432927131652832,-0.9046914577484131
1717013178716867800,31.112867919921875,0.021380282938480377,1.1368201971054077,-0.4386012554168701
1717013178756843000,31.152843017578125,0.29077184200286865,0.4544837474822998,0.03298672288656235
1717013178796854500,31.1928544921875,0.4807509481906891,-0.29504790902137756,0.15393804013729095
1717013178836863000,31.232863037109375,0.43615779280662537,-0.33292156457901,-0.11056660860776901
1717013178876868600,31.27286865234375,0.28527405858039856,0.3292563557624817,-0.5442809462547302
1717013178916847400,31.312847412109374,0.36102136969566345,0.30115658044815063,-0.6957755088806152
1717013178956855800,31.352855712890626,0.21502456068992615,-0.17592918872833252,-0.25595253705978394
1717013178996861400,31.392861328125,-0.10018189996480942,-0.6291912198066711,0.04764748737215996
1717013179036842800,31.4328427734375,-0.4056145250797272,-0.8991936445236206,0.35552358627319336
1717013179076851000,31.472850830078126,-0.9395107626914978,-0.7171558141708374,0.3579670190811157
1717013179116856800,31.51285693359375,-1.3390166759490967,-0.4080579876899719,0.3384193480014801
1717013179156867800,31.552867919921876,-1.6743816137313843,-0.4605923891067505,0.39584067463874817
1717013179196846000,31.59284619140625,-1.9950858354568481,-0.4703662395477295,0.3683517575263977
1717013179236852000,31.63285205078125,-2.188730239868164,-0.31459560990333557,0.3219259977340698
1717013179276865500,31.672865478515625,-2.3695461750030518,-0.2773328125476837,0.12828169763088226
1717013179316843800,31.71284375,-2.4159719944000244,-0.34574973583221436,0.2871066629886627
1717013179356849200,31.75284912109375,-2.495995283126831,-0.40744712948799133,0.2742784917354584
1717013179396860700,31.792860595703125,-2.439795732498169,-0.6994407176971436,0.4599815309047699
1717013179436867000,31.8328671875,-2.4159719944000244,-0.7049384713172913,0.47280970215797424
1717013179476842200,31.87284228515625,-2.4972171783447266,-1.037249207496643,0.6017022728919983
1717013179516855800,31.912855712890625,-2.275473117828369,-0.808174729347229,0.3677408695220947
1717013179556862200,31.9528623046875,-1.9175059795379639,-1.027475357055664,0.5326744914054871
1717013179596837000,31.992837158203123,-1.7171422243118286,-1.4129313230514526,0.48869219422340393
1717013179636849000,32.032848876953125,-1.662164330482483,-0.8423831462860107,-0.010995574295520782
1717013179676857300,32.072857421875,-1.2834278345108032,-0.3072652220726013,-0.2669481039047241
1717013179716863000,32.11286303710938,-1.4184291362762451,-0.6615670323371887,-0.13439035415649414
1717013179756846000,32.15284619140625,-1.4007140398025513,-0.4050036668777466,-0.694553792476654
1717013179796852200,32.19285229492188,-0.08185594528913498,0.494189977645874,-0.34086281061172485
1717013179836858000,32.23285815429688,-0.09712757170200348,-0.7867944240570068,0.26939156651496887
1717013179876869400,32.27286938476563,-0.2577851414680481,-1.1582005023956299,-0.47769662737846375
1717013179916849400,32.31284936523438,-0.3176499307155609,0.3695734739303589,-0.8405506014823914
1717013179956855000,32.35285498046875,-0.7617489695549011,0.4893030524253845,-0.769079327583313
1717013179996864800,32.39286474609375,-0.3591887652873993,2.0115792751312256,-1.1368201971054077
1717013180036844800,32.4328447265625,1.547932505607605,2.0170769691467285,0.03176499158143997
1717013180076850400,32.47285034179688,0.6646214127540588,0.7214318513870239,-0.26450464129447937
1717013180116861700,32.51286181640625,-0.039095375686883926,-0.7654141783714294,0.3628539443016052
1717013180156869600,32.55286962890625,-0.1973094791173935,-0.7409795522689819,0.2919935882091522
1717013180196844800,32.5928447265625,-0.3488040566444397,-0.5754350423812866,0.1814269721508026
1717013180236856800,32.63285693359375,-0.7385360598564148,-0.5571091175079346,-0.05803219974040985
1717013180276865500,32.672865478515625,-0.759305477142334,-0.617584764957428,-0.031154127791523933
1717013180316840700,32.7128408203125,-0.3891211748123169,-0.44593164324760437,-0.23884831368923187
1717013180356852000,32.75285205078125,-0.342695415019989,0.6236934065818787,-0.8875871896743774
1717013180396860400,32.7928603515625,0.1417207419872284,0.9578366875648499,-0.2871066629886627
1717013180436866000,32.832865966796874,0.4178318381309509,-0.12400564551353455,0.5644394755363464
1717013180476847000,32.87284716796875,-0.11239920556545258,-0.11911872029304504,0.2974913716316223
1717013180516855600,32.91285546875,-0.25961771607398987,0.11911872029304504,0.2272418737411499
1717013180556861000,32.95286083984375,-0.28466320037841797,-0.19486601650714874,0.12034045159816742
1717013180596842500,32.99284252929687,-0.25595253705978394,0.00855211354792118,-0.12767083942890167
1717013180636850700,33.0328505859375,0.21991148591041565,-0.1508837193250656,-0.04459316283464432
1717013180676856600,33.072856689453126,0.12950342893600464,-0.07208210229873657,-0.1264491081237793
1717013180716867800,33.112867919921875,-0.09407325088977814,0.2919935882091522,-0.21563543379306793
1717013180756846000,33.15284619140625,0.018325956538319588,0.5381723046302795,0.0555887371301651
1717013180796851500,33.1928515625,0.10690141469240189,0.1820378452539444,0.4056145250797272
1717013180836863000,33.232863037109375,0.20097467303276062,-0.22357667982578278,0.3701843321323395
1717013180876871400,33.27287133789063,0.3127630054950714,0.1160643994808197,0.48319441080093384
1717013180916846600,33.3128466796875,0.1362229436635971,0.1014036312699318,0.8008443117141724
1717013180956858000,33.352858154296875,0.13011430203914642,0.054367005825042725,0.5216789245605469
1717013180996867600,33.39286767578125,1.0268645286560059,0.50335294008255,0.1820378452539444
1717013181036842000,33.432842041015626,2.043344259262085,0.09712757170200348,0.15271630883216858
1717013181076851000,33.47285083007812,2.557692766189575,0.1319468915462494,-0.02076941914856434
1717013181116860000,33.51285986328125,2.7934868335723877,0.21991148591041565,0.4288274049758911
1717013181156864800,33.55286474609375,2.5888469219207764,0.342695415019989,0.42577308416366577
1717013181196845800,33.592845703125,2.777604341506958,0.6786713004112244,0.4538728892803192
1717013181236854800,33.63285473632813,2.8325822353363037,-0.03726277872920036,1.083064079284668
1717013181276860200,33.672860107421876,2.615114212036133,-0.6126978397369385,0.8429940342903137
1717013181316841500,33.712841552734375,1.5937473773956299,-1.5424346923828125,0.9028588533401489
1717013181356849700,33.752849609375,1.1374311447143555,-1.6713273525238037,1.2736539840698242
1717013181396857600,33.79285766601563,1.1484266519546509,-0.7525860071182251,1.2211196422576904
1717013181436868900,33.83286889648438,1.2962560653686523,-0.636521577835083,2.275473117828369
1717013181476847000,33.87284716796875,1.4660766124725342,-0.5968153476715088,1.6951510906219482
1717013181516853000,33.91285302734375,1.6884315013885498,0.252287358045578,1.8197675943374634
1717013181556864000,33.95286401367188,1.0195341110229492,0.31520646810531616,1.7544050216674805
1717013181596842200,33.99284228515625,0.8484918475151062,1.06657075881958,-0.13988813757896423
1717013181636845800,34.032845703125,1.047023057937622,1.797776460647583,-0.303600013256073
1717013181676859400,34.072859375,0.5516113042831421,1.5485434532165527,-0.23945917189121246
1717013181716865800,34.11286572265625,0.1875356286764145,1.803274154663086,-1.415374755859375
1717013181756843000,34.15284301757813,0.007941247895359993,1.214400053024292,-1.3243558406829834
1717013181796854300,34.19285424804688,0.2816088795661926,0.901637077331543,-0.7336491346359253
1717013181836863000,34.232863037109375,0.5968153476715088,0.6988298296928406,-0.11423180252313614
1717013181876868600,34.27286865234375,0.6243042945861816,0.11239920556545258,0.5143485069274902
1717013181916849400,34.31284936523438,0.5326744914054871,-0.1918116807937622,0.5027421116828918
1717013181956858000,34.352858154296875,0.6304129362106323,0.4789183437824249,-0.8411614298820496
1717013181996863500,34.392863525390624,0.7055493593215942,1.9504927396774292,-1.5436564683914185
1717013182036844800,34.4328447265625,0.5571091175079346,2.392759084701538,-0.9297369122505188
1717013182076853200,34.472853271484375,0.27488934993743896,0.7562511563301086,0.5540547966957092
1717013182116859000,34.51285888671875,-0.3378084897994995,-0.3335324227809906,1.053742527961731
1717013182156902400,34.55290234375,-0.30543261766433716,-0.15821409225463867,0.4043927788734436
1717013182196848000,34.59284814453125,-0.13011430203914642,0.4697553813457489,-0.5626068711280823
1717013182236853800,34.632853759765624,-0.01771509274840355,0.9358455538749695,-1.0305296182632446
1717013182276865300,34.672865234375,-0.04092797264456749,0.8478809595108032,-0.799011766910553
1717013182316843500,34.712843505859375,-0.3225368559360504,-0.2883284091949463,-0.3292563557624817
1717013182356849000,34.752848876953124,-0.19975294172763824,-0.99876469373703,-0.6310238242149353
1717013182396858400,34.7928583984375,0.001832595793530345,-0.09773843735456467,-0.7910705208778381
1717013182436866800,34.83286669921875,-0.17104226350784302,0.6475171446800232,-1.0824532508850098
1717013182476842000,34.87284204101562,-0.15027284622192383,0.5100724697113037,-0.8729264140129089
1717013182516853500,34.912853515625,-0.32070425152778625,-0.18325957655906677,-0.35735616087913513
1717013182556862500,34.95286254882812,-0.8197811841964722,-0.4294382631778717,-0.05497787147760391
1717013182596837000,34.99283715820312,-1.2846496105194092,-0.18631389737129211,0.08246681094169617
1717013182636849000,35.032848876953125,-1.6481144428253174,-0.19486601650714874,0.5815436840057373
1717013182676857300,35.072857421875,-1.9407188892364502,-0.3604104816913605,0.6664539575576782
1717013182716863000,35.11286303710938,-2.1569652557373047,-0.9474520087242126,0.7874053120613098
1717013182756844000,35.152843994140625,-2.3164010047912598,-1.1746938228607178,0.5845980644226074
1717013182796852500,35.1928525390625,-2.6835310459136963,-0.6707300543785095,0.13927727937698364
1717013182836858000,35.23285815429688,-2.936429262161255,0.25106561183929443,0.37751471996307373
1717013182876872000,35.27287182617187,-3.0671544075012207,-0.4966334402561188,0.8845328688621521
1717013182916849700,35.312849609375,-2.93154239654541,0.14416420459747314,0.2718350291252136
1717013182956855300,35.35285522460938,-2.3206770420074463,0.38728857040405273,0.5155702829360962
1717013182996864500,35.39286450195313,-1.9468275308609009,-0.1820378452539444,0.24862214922904968
1717013183036844800,35.4328447265625,-1.6701055765151978,-0.036651913076639175,0.2968805134296417
1717013183076848400,35.47284838867188,-1.1429288387298584,0.38606682419776917,0.17043140530586243
1717013183116860000,35.51285986328125,-0.7770205736160278,-0.3854559659957886,0.13927727937698364
1717013183156867600,35.55286767578125,-0.4538728892803192,-1.4037683010101318,1.1520918607711792
1717013183196842800,35.5928427734375,-0.5589417219161987,-0.9608910083770752,0.9480628371238708
1717013183236854800,35.63285473632813,-0.5778785347938538,-1.056796908378601,0.675616979598999
1717013183276863200,35.67286328125,-1.4960089921951294,-0.53328537940979,0.59803706407547
1717013183316840700,35.7128408203125,-1.091616153717041,0.7757988572120667,0.8258898258209229
1717013183356852000,35.75285205078125,-0.394008070230484,0.3500257730484009,0.2736676335334778
1717013183396862700,35.79286279296875,-0.4196644127368927,0.6224716901779175,-0.8332201838493347
1717013183436866000,35.832865966796874,0.4043927788734436,0.8185594081878662,-0.6499606370925903
1717013183476847000,35.87284716796875,-0.08796459436416626,0.48685958981513977,-0.02871066704392433
1717013183516855600,35.91285546875,0.1514945775270462,0.14905111491680145,0.578489363193512
1717013183556859100,35.95285913085937,0.09712757170200348,-0.13011430203914642,0.8234463334083557
1717013183596840000,35.99283984375,-0.3885102868080139,-0.13988813757896423,0.7092145681381226
1717013183636850700,36.0328505859375,-0.5968153476715088,0.3127630054950714,0.3384193480014801
1717013183676856300,36.072856201171874,-0.1417207419872284,0.8772025108337402,0.4642575979232788
1717013183716867600,36.11286767578125,-0.4153883755207062,0.3433062732219696,0.9077457785606384
1717013183756845800,36.152845703125,-0.8344419002532959,0.7660250067710876,0.675616979598999
1717013183796851700,36.192851806640626,-0.11789698898792267,2.051896333694458,0.5308418869972229
1717013183836863000,36.232863037109375,-0.36102136969566345,1.0458012819290161,0.7971791625022888
1717013183876871700,36.27287158203125,-0.3579670190811157,0.26511552929878235,0.4605923891067505
1717013183916846600,36.3128466796875,-0.25106561183929443,0.6499606370925903,-0.323147714138031
1717013183956858000,36.352858154296875,-0.3543018400669098,-0.05925392732024193,-0.08552113175392151
1717013183996866600,36.39286645507813,0.07147123664617538,-0.6994407176971436,0.1160643994808197
1717013184036841700,36.432841796875,0.18997909128665924,0.018936822190880775,0.003054326167330146
1717013184076853500,36.472853515625,0.15943582355976105,0.17470745742321014,0.09162978827953339
1717013184116862000,36.51286206054687,0.17592918872833252,0.09834930300712585,0.14966198801994324
1717013184156867000,36.5528671875,0.19853121042251587,0.16310101747512817,0.003054326167330146
1717013184196847900,36.59284790039062,0.07208210229873657,0.14782938361167908,-0.04948008432984352
1717013184236856800,36.63285693359375,-0.14355333149433136,0.048258353024721146,-0.09162978827953339
1717013184276862700,36.67286279296875,-0.2474004179239273,0.49785518646240234,-0.26022860407829285
1717013184316843300,36.71284326171875,-0.27122417092323303,0.5699372887611389,-0.26145032048225403
1717013184356854000,36.75285400390625,-0.2681698501110077,0.6279694437980652,-0.294437050819397
1717013184396859600,36.79285961914063,-0.29138273000717163,1.1533136367797852,-0.7037167549133301
1717013184436869000,36.832869140625,-0.16920967400074005,1.370781660079956,-1.0396926403045654
1717013184476847600,36.87284765625,0.3891211748123169,1.043968677520752,-1.2443325519561768
1717013184516850400,36.912850341796876,1.2504411935806274,0.2638937830924988,-1.503339409828186
1717013184556864300,36.9528642578125,2.4355196952819824,-0.3628539443016052,-1.454470157623291
1717013184596840200,36.99284008789063,3.2534682750701904,-0.5094616413116455,-1.1178834438323975
1717013184636845800,37.032845703125,3.0726521015167236,-0.6444628238677979,-1.027475357055664
1717013184676857000,37.07285717773438,2.8130345344543457,0.6377432942390442,-0.8600982427597046
1717013184716865800,37.11286572265625,2.842355966567993,-0.021380282938480377,-0.5229006409645081
1717013184756840700,37.1528408203125,2.7953193187713623,0.1270599663257599,-0.13927727937698364
1717013184796852500,37.1928525390625,2.500882387161255,-0.01466076634824276,-0.6432411074638367
1717013184836863200,37.23286328125,2.199725866317749,0.23273965716362,-1.8008307218551636
1717013184876866600,37.27286645507812,3.3463199138641357,0.31459560990333557,-2.0977113246917725
1717013184916847600,37.31284765625,2.084882974624634,-0.4612032473087311,-1.6615535020828247
1717013184956858000,37.352858154296875,1.0726794004440308,-0.17776179313659668,-1.356731653213501
1717013184996864000,37.392864013671876,1.1184942722320557,0.09529497474431992,-0.4147774875164032
1717013185036844800,37.4328447265625,0.6395758986473083,0.44776421785354614,-1.0482447147369385
1717013185076853200,37.472853271484375,1.3701707124710083,-0.3579670190811157,-0.22113321721553802
1717013185116856800,37.51285693359375,1.0238101482391357,-2.9681942462921143,1.8753563165664673
1717013185156867600,37.55286767578125,0.35552358627319336,-2.2650883197784424,1.2779301404953003
1717013185196847900,37.59284790039062,0.5821545720100403,-0.4856378734111786,0.6719517707824707
1717013185236852200,37.632852294921875,0.4306600093841553,0.6914994716644287,-0.35124751925468445
1717013185276863200,37.67286328125,1.1911872625350952,2.2687535285949707,-1.3298536539077759
1717013185316843300,37.71284326171875,1.6872098445892334,1.8167132139205933,-0.7819074988365173
1717013185356849200,37.75284912109375,1.3176363706588745,0.41233405470848083,0.17592918872833252
1717013185396861000,37.79286083984375,0.5522221922874451,-0.8991936445236206,0.46547931432724
1717013185436869000,37.832869140625,-0.3292563557624817,-0.3604104816913605,-0.607200026512146
1717013185476844300,37.87284423828125,-0.3689626157283783,2.051896333694458,-1.5320500135421753
1717013185516855600,37.91285546875,-0.20097467303276062,2.359161615371704,-0.6933320760726929
1717013185556862200,37.9528623046875,-0.5766568183898926,0.48319441080093384,0.6524040699005127
1717013185596837000,37.99283715820312,-0.46731191873550415,-0.618195652961731,0.7904596328735352
1717013185636848600,38.0328486328125,-0.19364428520202637,-0.4862487316131592,0.21380282938480377
1717013185676859100,38.07285913085938,-0.001832595793530345,0.22602014243602753,-0.24923302233219147
1717013185716865000,38.11286499023438,-0.18020524084568024,0.988379955291748,-0.6530149579048157
1717013185756845800,38.152845703125,-0.16310101747512817,0.5754350423812866,-0.2535090744495392
1717013185796854500,38.1928544921875,-0.18081611394882202,-0.022602014243602753,-0.09957103431224823
1717013185836860200,38.23286010742188,-0.4612032473087311,-0.21807889640331268,-0.07635815441608429
1717013185876871700,38.27287158203125,-0.6817256212234497,-0.21380282938480377,-0.15454891324043274
1717013185916867300,38.312867431640626,-0.6487388610839844,0.2687807083129883,-0.3982841372489929
1717013185956871000,38.352870849609374,-0.6682865619659424,0.41722095012664795,-0.18875735998153687
1717013185996882700,38.392882568359376,-0.8460483551025391,-0.13377949595451355,0.2583959996700287
1717013186036860400,38.4328603515625,-1.0140362977981567,-0.5974262356758118,0.11301007121801376
1717013186076866000,38.472865966796874,-1.389107584953308,-1.06351637840271,0.20952677726745605
1717013186116880000,38.5128798828125,-2.1258111000061035,-0.656680166721344,0.0806342139840126
1717013186156918300,38.552918212890624,-2.5980098247528076,-0.0806342139840126,0.37751471996307373
1717013186196863000,38.592863037109375,-2.7171285152435303,-0.11362093687057495,0.3903428912162781
1717013186236874800,38.632874755859376,-2.3774874210357666,-0.18936823308467865,0.6298020482063293
1717013186276883200,38.67288330078125,-2.397646188735962,-0.7629706859588623,0.5436700582504272
1717013186316858400,38.7128583984375,-2.7146852016448975,-0.7507534027099609,0.1716531366109848
1717013186356870000,38.752869873046876,-2.6065618991851807,-0.25106561183929443,-0.06780604273080826
1717013186396878300,38.79287841796875,-2.3182334899902344,-0.38667771220207214,0.24862214922904968
1717013186436882000,38.8328818359375,-2.135584831237793,-0.8210029006004333,0.20586158335208893
1717013186476865000,38.872864990234376,-2.0958786010742188,-0.2724458873271942,-0.06719517707824707
1717013186516871400,38.91287133789063,-1.5344934463500977,-0.5265658497810364,0.10751228034496307
1717013186556877000,38.952876953125,-1.0574077367782593,-1.3524556159973145,0.39645153284072876
1717013186596857600,38.992857666015624,-1.224173903465271,-0.6328563690185547,-0.13439035415649414
1717013186636866600,39.03286645507813,-0.8319984674453735,0.31154128909111023,-0.7660250067710876
1717013186676872200,39.0728720703125,-1.2400563955307007,0.40744712948799133,-0.9853256344795227
1717013186716885800,39.1128857421875,-0.6328563690185547,0.8631525635719299,-0.7941248416900635
1717013186756863500,39.15286352539062,0.16982053220272064,0.7079927921295166,-0.0708603709936142
1717013186796869400,39.19286938476562,0.12095131725072861,0.49296826124191284,0.16798794269561768
1717013186836881000,39.232880859375,0.4605923891067505,-0.1411098688840866,0.20952677726745605
1717013186876889300,39.272889404296876,0.15882496535778046,-0.9279043078422546,0.01038470957428217
1717013186916864500,39.31286450195312,-0.3952298164367676,-0.5992587804794312,-0.054367005825042725
1717013186956875800,39.35287573242187,-0.3830125033855438,-1.3854423761367798,0.21013765037059784
1717013186996884500,39.392884521484376,-0.7360926270484924,-0.8772025108337402,-0.0507018156349659
1717013187036860000,39.43285986328125,-0.6499606370925903,-0.2480112910270691,-0.1966986060142517
1717013187076871200,39.47287109375,-0.5442809462547302,-0.39217549562454224,-0.14538592100143433
1717013187116880000,39.5128798828125,-0.31520646810531616,0.19120082259178162,-0.44837507605552673
1717013187156884700,39.552884765625,0.07208210229873657,0.2174680233001709,-0.1215621829032898
1717013187196865500,39.59286547851563,0.05375614017248154,-0.3842342495918274,0.3017674386501312
1717013187236874500,39.63287451171875,-0.13072516024112701,-0.1362229436635971,0.0403171069920063
1717013187276880100,39.672880126953125,-0.35735616087913513,0.2528982162475586,-0.3219259977340698
1717013187316861400,39.712861328125,-0.39095374941825867,0.36224308609962463,-0.3536909818649292
1717013187356870000,39.752869873046876,-0.15943582355976105,0.11484266817569733,-0.09407325088977814
1717013187396875300,39.792875244140625,-0.0012217304902151227,-0.06841690838336945,0.07819075137376785
1717013187436886500,39.832886474609374,0.04764748737215996,0.17348572611808777,0.11423180252313614
1717013187476865000,39.872864990234376,0.23151792585849762,0.29626965522766113,0.04886921867728233
1717013187516870700,39.91287060546875,0.16310101747512817,-0.12828169763088226,-0.13927727937698364
1717013187556882000,39.9528818359375,0.0354301854968071,0.22052235901355743,-0.1973094791173935
1717013187596860000,39.99285986328125,0.33536502718925476,0.2828305959701538,-0.07391469180583954
1717013187636865800,40.03286572265625,0.44715335965156555,0.14905111491680145,0.001832595793530345
1717013187676875000,40.072875,0.7116580009460449,0.07330382615327835,0.12767083942890167
1717013187716886000,40.11288598632812,1.0855075120925903,0.07696902006864548,0.22052235901355743
1717013187756861000,40.15286083984375,1.445918083190918,0.05619960278272629,0.18875735998153687
1717013187796870100,40.1928701171875,1.7849482297897339,0.2070833146572113,0.21624629199504852
1717013187836878800,40.23287890625,1.901012659072876,0.2217440903186798,0.3286454975605011
1717013187876884200,40.27288427734375,2.0867156982421875,0.23151792585849762,0.394618958234787
1717013187916865300,40.312865234375,2.41413950920105,0.3677408695220947,0.6597344875335693
1717013187956874000,40.3528740234375,2.0219640731811523,0.4648684561252594,0.4954117238521576
1717013187996881700,40.39288159179687,2.0696115493774414,0.9065240025520325,0.5393940210342407
1717013188036862700,40.43286279296875,2.5717427730560303,0.485027015209198,0.8148942589759827
1717013188076871200,40.47287109375,2.5283713340759277,-0.036651913076639175,1.027475357055664
1717013188116876800,40.51287670898437,2.7293457984924316,0.3646865487098694,0.12400564551353455
1717013188156887800,40.5528876953125,3.1642820835113525,0.004886921960860491,0.5418374538421631
1717013188196865800,40.59286572265625,3.0799825191497803,-0.15393804013729095,0.045204028487205505
1717013188236871700,40.63287158203125,2.7171285152435303,0.9816604256629944,-1.0286970138549805
1717013188276883200,40.67288330078125,2.1600193977355957,0.09896016865968704,0.12828169763088226
1717013188316861200,40.71286108398437,1.6022995710372925,0.2590068578720093,-0.25595253705978394
1717013188356867000,40.7528671875,1.453248381614685,0.4489859640598297,0.12522737681865692
1717013188396876500,40.79287646484375,1.1649199724197388,0.15943582355976105,0.6224716901779175
1717013188436884700,40.832884765625,0.6615670323371887,1.1246029138565063,-0.8112290501594543
1717013188476860000,40.87285986328125,0.3341432809829712,1.576032280921936,-1.3213015794754028
1717013188516871200,40.91287109375,0.06230825558304787,0.7953465580940247,-0.5668829679489136
1717013188556880000,40.9528798828125,-0.12278391420841217,-0.2278527319431305,0.5876523852348328
1717013188596854500,40.9928544921875,-0.37629300355911255,-0.5021312236785889,1.1887437105178833
1717013188636868400,41.03286840820312,-0.6579018831253052,-0.021380282938480377,0.8680394887924194
1717013188676877000,41.072876953125,-0.5546656250953674,0.1771509200334549,0.394618958234787
1717013188716883000,41.11288305664063,-0.6218608021736145,-0.41233405470848083,-0.11423180252313614
1717013188756863500,41.15286352539062,-0.7000515460968018,-0.20097467303276062,-1.7941112518310547
1717013188796870100,41.1928701171875,-0.8655960559844971,2.0091357231140137,-2.800206184387207
1717013188836877800,41.2328779296875,-0.8869763612747192,2.481945514678955,-0.6444628238677979
1717013188876887300,41.27288720703125,-0.44776421785354614,0.3182607889175415,1.4086552858352661
1717013188916865000,41.312864990234374,-0.21135938167572021,-0.7226535677909851,1.218676209449768
1717013188956873000,41.352873046875,0.19792033731937408,-0.6896668672561646,-0.0708603709936142
1717013188996884500,41.392884521484376,0.4098905920982361,0.22968533635139465,-0.8258898258209229
1717013189036862500,41.432862548828126,0.4893030524253845,0.7012733221054077,-0.5143485069274902
1717013189076868000,41.4728681640625,0.3744603991508484,0.242513507604599,-0.0555887371301651
1717013189116880000,41.5128798828125,0.08979719132184982,-0.07941248267889023,-0.34025195240974426
1717013189156885500,41.55288549804688,0.23884831368923187,0.15454891324043274,-0.79840087890625
1717013189196860400,41.5928603515625,0.11423180252313614,0.6328563690185547,-1.8319848775863647
1717013189236872400,41.63287255859375,0.22846360504627228,1.06657075881958,-2.5815165042877197
1717013189276881200,41.67288110351563,-0.1667662113904953,0.3481931984424591,-1.4275920391082764
1717013189316856300,41.712856201171874,-0.598647952079773,-0.28588494658470154,0.1417207419872284
1717013189356867600,41.75286767578125,-0.9993755221366882,-0.44226643443107605,1.2858713865280151
1717013189396876000,41.7928759765625,-1.1020009517669678,-0.5589417219161987,1.585806131362915
1717013189436881700,41.83288159179688,-1.197906732559204,-0.9321803450584412,1.3817771673202515
1717013189476863000,41.872863037109376,-1.4880677461624146,-1.0225883722305298,0.7409795522689819
1717013189516871400,41.91287133789063,-1.777006983757019,-0.3072652220726013,0.38667771220207214
1717013189556879000,41.95287915039062,-2.2235496044158936,-0.25473082065582275,0.6206390857696533
1717013189596860200,41.992860107421876,-2.47094988822937,-0.20036379992961884,0.7757988572120667
1717013189636868600,42.03286865234375,-2.6053402423858643,0.2987131178379059,0.6505714654922485
1717013189676874200,42.07287426757812,-2.4575109481811523,0.4001167416572571,0.2480112910270691
1717013189716883500,42.11288354492188,-2.219273328781128,-0.42210787534713745,0.26511552929878235
1717013189756861700,42.15286181640625,-2.1820106506347656,-0.8894197940826416,0.48747047781944275
1717013189796867300,42.19286743164062,-2.0732767581939697,-0.9382890462875366,0.14538592100143433
1717013189836878800,42.23287890625,-2.1655173301696777,-0.7415903806686401,-0.15577064454555511
1717013189876887300,42.27288720703125,-2.122145891189575,-0.13255776464939117,-0.5210680365562439
1717013189916862500,42.31286254882812,-2.2088887691497803,0.5974262356758118,-0.49296826124191284
1717013189956874000,42.3528740234375,-1.7360789775848389,-0.3139847218990326,0.04214970022439957
1717013189996882400,42.39288232421875,-1.4129313230514526,-0.28038713335990906,-0.23640485107898712
1717013190036857600,42.43285766601562,-1.4404202699661255,0.04886921867728233,-0.35735616087913513
1717013190076871200,42.47287109375,-1.1313223838806152,0.3995058834552765,-0.3280346393585205
1717013190116878000,42.51287817382813,-0.44104471802711487,1.853365182876587,-0.1722639948129654
1717013190156915200,42.55291528320313,0.675006091594696,1.2040153741836548,0.950506329536438
1717013190196865500,42.59286547851563,0.7580837607383728,-0.3445279896259308,1.084285855293274
1717013190236874500,42.63287451171875,0.4086688458919525,-1.1801916360855103,0.4703662395477295
1717013190276880100,42.672880126953125,-0.18997909128665924,-0.5247332453727722,-0.2638937830924988
1717013190316861000,42.71286083984375,-0.684779942035675,-0.17409659922122955,-0.608421802520752
1717013190356869600,42.75286962890625,-0.8014551997184753,-0.656069278717041,-0.304210901260376
1717013190396875300,42.792875244140625,-0.578489363193512,-0.5546656250953674,-0.28466320037841797
1717013190436886800,42.83288671875,-0.5192354321479797,0.42271876335144043,-0.7904596328735352
1717013190476864800,42.87286474609375,-0.19547687470912933,1.1808024644851685,-0.7464773058891296
1717013190516870400,42.912870361328125,0.4190535545349121,0.4948008358478546,-0.05497787147760391
1717013190556882200,42.952882080078126,0.02687807008624077,0.015271631069481373,0.17959438264369965
1717013190596860200,42.992860107421876,-0.503963828086853,0.7562511563301086,-0.2217440903186798
1717013190636865500,43.032865478515625,-0.3433062732219696,1.643227458000183,-0.93095862865448
1717013190676877000,43.072876953125,-0.4404338300228119,1.793500304222107,-1.3817771673202515
1717013190716885800,43.1128857421875,-0.3543018400669098,1.693318486213684,-0.7287622094154358
1717013190756860700,43.152860595703125,-0.28527405858039856,1.7299703359603882,-1.0183123350143433
1717013190796872200,43.1928720703125,-0.4251621961593628,0.8436049222946167,-0.6963863968849182
1717013190836878600,43.23287866210938,-0.27488934993743896,0.4392121136188507,-0.5143485069274902
1717013190876886300,43.27288623046875,0.26511552929878235,0.04642575979232788,-0.15882496535778046
1717013190916867600,43.31286767578125,0.7727445363998413,-1.0219775438308716,0.8258898258209229
1717013190956875800,43.35287573242187,0.6444628238677979,-1.2510520219802856,1.207069754600525
1717013190996879400,43.39287939453125,-0.14966198801994324,-1.1801916360855103,1.156978726387024
1717013191036860200,43.432860107421874,0.16859880089759827,-1.1166616678237915,0.8827002644538879
1717013191076868900,43.47286889648438,0.7250970602035522,-1.0684033632278442,0.5082398653030396
1717013191116875000,43.512875,1.5723671913146973,-0.1111774742603302,-0.0910189226269722
1717013191156885800,43.5528857421875,2.328007459640503,-0.4856378734111786,0.31642818450927734
1717013191196863500,43.59286352539063,2.933985710144043,-0.3543018400669098,0.5247332453727722
1717013191236869400,43.63286938476563,2.794097661972046,-1.1691961288452148,0.40194934606552124
1717013191276881400,43.67288134765625,1.6420058012008667,-0.048258353024721146,0.5619960427284241
1717013191316859100,43.71285913085938,2.1508564949035645,0.9627236127853394,0.2474004179239273
1717013191356864800,43.75286474609375,2.5607471466064453,0.06475171446800232,0.6145304441452026
1717013191396876300,43.79287622070313,2.1447479724884033,-0.770301103591919,0.6707300543785095
1717013191436884700,43.832884765625,2.0079140663146973,-0.39156460762023926,0.35735616087913513
1717013191476862000,43.87286206054687,1.9620991945266724,-0.27061331272125244,-0.09285151958465576
1717013191516873700,43.91287377929687,2.6786441802978516,0.27000242471694946,0.21991148591041565
1717013191556880100,43.952880126953126,2.791043281555176,-0.9193521738052368,0.39645153284072876
1717013191596857000,43.99285717773437,2.040900707244873,0.04459316283464432,-0.25595253705978394
1717013191636866300,44.0328662109375,2.001194477081299,0.3243694305419922,0.39095374941825867
1717013191676875300,44.072875244140626,1.3616186380386353,-0.07757988572120667,0.22540926933288574
1717013191716880600,44.112880615234374,0.7849618196487427,0.036041051149368286,0.06230825558304787
1717013191756861700,44.15286181640625,0.49846604466438293,0.09468411654233932,0.27488934993743896
1717013191796870400,44.192870361328126,0.5296201705932617,0.11423180252313614,0.05742133408784866
1717013191836875800,44.232875732421874,0.35674530267715454,0.8478809595108032,-0.6126978397369385
1717013191876889000,44.27288916015625,0.645684540271759,1.3836097717285156,-0.7232644557952881
1717013191916865000,44.312864990234374,1.06657075881958,0.7672467231750488,-0.5412266254425049
1717013191956873000,44.352873046875,0.998153805732727,0.00855211354792118,-0.6243042945861816
1717013191996884500,44.392884521484376,1.0555751323699951,0.17959438264369965,-1.4135421514511108
1717013192036860200,44.432860107421874,1.2015719413757324,0.8930850028991699,-1.2779301404953003
1717013192076865800,44.47286572265625,0.1716531366109848,0.9468411207199097,0.0708603709936142
1717013192116879600,44.512879638671876,-0.7959573864936829,0.5412266254425049,1.5558737516403198
1717013192156885200,44.55288525390625,-0.9926560521125793,0.513737678527832,1.5277739763259888
1717013192196862500,44.59286254882812,-0.07696902006864548,0.24923302233219147,0.20586158335208893
1717013192236874500,44.63287451171875,0.20402899384498596,-0.5021312236785889,-0.7116580009460449
1717013192276883200,44.67288330078125,-0.18325957655906677,-0.37690386176109314,-1.0054842233657837
1717013192316858400,44.7128583984375,0.21013765037059784,-0.16004669666290283,-0.5522221922874451
1717013192356867600,44.75286767578125,-0.15393804013729095,-0.5717698931694031,0.02076941914856434
1717013192396876000,44.7928759765625,-0.7629706859588623,-0.7489207983016968,0.17898350954055786
1717013192436882000,44.8328818359375,-1.0775662660598755,-0.5503895878791809,0.16798794269561768
1717013192476863000,44.872863037109376,-1.4196507930755615,-0.384845107793808,0.01771509274840355
1717013192516871400,44.91287133789063,-1.6548339128494263,-0.24678955972194672,0.09162978827953339
1717013192556879000,44.95287915039062,-1.86497163772583,-0.18325957655906677,0.21135938167572021
1717013192596858000,44.992858154296876,-2.029905319213867,-0.5082398653030396,0.3384193480014801
1717013192636866600,45.03286645507813,-2.3402247428894043,-0.49235737323760986,0.20036379992961884
1717013192676872200,45.0728720703125,-2.6847527027130127,-0.015271631069481373,0.19486601650714874
1717013192716883700,45.1128837890625,-2.7708847522735596,-0.022602014243602753,0.22052235901355743
1717013192756863700,45.15286376953125,-2.889392614364624,-0.37140607833862305,0.03176499158143997
1717013192796869400,45.19286938476562,-2.863736152648926,0.009773843921720982,-0.26939156651496887
1717013192836881000,45.232880859375,-2.4746150970458984,0.33536502718925476,-0.19303341209888458
1717013192876889300,45.272889404296876,-2.172236919403076,0.11850785464048386,0.2938261926174164
1717013192916862500,45.31286254882812,-1.6560556888580322,-0.16920967400074005,0.5357288122177124
1717013192956873700,45.35287377929688,-1.750128984451294,-0.9553932547569275,0.5271766781806946
1717013192996882700,45.392882568359376,-1.5961909294128418,-1.158811330795288,0.21502456068992615
1717013193036857300,45.432857421875,-1.3628404140472412,-0.7293730974197388,-0.26939156651496887
1717013193076869000,45.472869140625,-1.2651019096374512,-0.8185594081878662,-0.08796459436416626
1717013193116877600,45.512877685546876,-0.3188716471195221,-0.8936958312988281,-0.4105014503002167
1717013193156882700,45.55288256835937,-0.4331034719944,-0.6359107494354248,-0.6524040699005127
1717013193196863500,45.59286352539063,-0.3090978264808655,-0.9462302923202515,0.024434609338641167
1717013193236874500,45.63287451171875,-0.06963863968849182,-0.7122688889503479,0.3885102868080139
1717013193276880100,45.672880126953125,-0.4404338300228119,0.8869763612747192,-1.3646728992462158
1717013193316861200,45.71286108398437,-0.37690386176109314,1.4929546117782593,-1.1117748022079468
1717013193356867600,45.75286767578125,0.10018189996480942,1.1093312501907349,-0.3439171314239502
1717013193396875300,45.792875244140625,1.538158655166626,1.2718214988708496,0.2632829248905182
1717013193436884700,45.832884765625,2.0054705142974854,-0.08674286305904388,0.14905111491680145
1717013193476865000,45.872864990234376,0.1508837193250656,0.4196644127368927,-0.5925393104553223
1717013193516870700,45.91287060546875,-0.5094616413116455,-0.2724458873271942,-0.18448130786418915
1717013193556880000,45.9528798828125,-0.8594874143600464,-0.655458390712738,-0.06291911751031876
1717013193596860200,45.992860107421876,-1.140485405921936,-0.029932396486401558,-0.40744712948799133
1717013193636866000,46.03286596679688,-0.7171558141708374,0.014049900695681572,-0.36713001132011414
1717013193676877000,46.072876953125,-0.494189977645874,0.17104226350784302,-0.4605923891067505
1717013193716885800,46.1128857421875,-0.13377949595451355,0.750142514705658,-0.2278527319431305
1717013193756860700,46.152860595703125,0.5558874011039734,0.1569923609495163,0.513126790523529
1717013193796872400,46.19287255859375,0.45204028487205505,-0.6969972252845764,0.3903428912162781
1717013193836881000,46.232880859375,-0.17776179313659668,-0.4001167416572571,-0.0757472887635231
1717013193876886500,46.27288647460937,-0.38240164518356323,0.24495697021484375,-0.2565633952617645
1717013193916867600,46.31286767578125,-0.45814892649650574,0.20402899384498596,-0.01038470957428217
1717013193956876000,46.3528759765625,-0.42699480056762695,-0.10873401165008545,0.2816088795661926
1717013193996881700,46.39288159179687,-0.09285151958465576,-0.02687807008624077,0.24617868661880493
1717013194036862500,46.432862548828126,-0.010995574295520782,0.12461651116609573,0.0354301854968071
1717013194076871000,46.47287084960937,0.21807889640331268,0.32070425152778625,0.12400564551353455
1717013194116876800,46.51287670898437,0.5161811113357544,-0.21380282938480377,0.3579670190811157
1717013194156920000,46.552920166015625,0.2681698501110077,-0.2767219543457031,0.2321287989616394
1717013194196865800,46.59286572265625,0.06719517707824707,0.1368338167667389,-0.1062905490398407
1717013194236871700,46.63287158203125,-0.0006108652451075613,0.32070425152778625,-0.08552113175392151
1717013194276883200,46.67288330078125,-0.003054326167330146,0.28588494658470154,0.15027284622192383
1717013194316859000,46.71285888671875,0.3781255781650543,0.23518311977386475,0.38606682419776917
1717013194356867000,46.7528671875,0.8423831462860107,0.016493361443281174,0.637132465839386
1717013194396876500,46.79287646484375,1.0476338863372803,-0.16065755486488342,0.6334672570228577
1717013194436884500,46.832884521484374,1.1301007270812988,0.23029619455337524,0.29565876722335815
1717013194476860000,46.87285986328125,1.4703526496887207,0.4746423065662384,0.2834414839744568
1717013194516871400,46.91287133789063,1.8301522731781006,0.4196644127368927,0.07635815441608429
1717013194556880000,46.9528798828125,2.5411994457244873,0.3543018400669098,0.14538592100143433
1717013194596855000,46.99285498046875,2.847242832183838,-0.06536258012056351,0.3805690407752991
1717013194636866300,47.0328662109375,2.4831671714782715,-0.5064072608947754,0.7605272531509399
1717013194676877000,47.072876953125,2.445904493331909,0.12828169763088226,0.2021963894367218
1717013194716883000,47.11288305664063,2.5809056758880615,0.1014036312699318,0.685390830039978
1717013194756863700,47.15286376953125,2.6175575256347656,0.3634648323059082,0.7971791625022888
1717013194796870400,47.192870361328126,3.1166343688964844,-0.9590584635734558,2.1899518966674805
1717013194836878000,47.23287817382813,2.0274617671966553,-0.6053674817085266,1.500285029411316
1717013194876889300,47.272889404296876,1.8417587280273438,1.0702359676361084,-0.9724974632263184
1717013194916867600,47.31286767578125,2.4697282314300537,-0.4697553813457489,0.22357667982578278
1717013194956873000,47.352873046875,1.5460999011993408,-1.7751743793487549,1.503339409828186
1717013194996884500,47.392884521484376,1.1905763149261475,-0.1417207419872284,0.9376781582832336
1717013195036860400,47.4328603515625,1.2956452369689941,0.6969972252845764,0.3225368559360504
1717013195076866000,47.472865966796874,0.8839219808578491,0.9914342761039734,-0.4648684561252594
1717013195116877300,47.512877197265624,0.3390302062034607,1.4043792486190796,-1.1423180103302002
1717013195156885200,47.55288525390625,0.025045474991202354,1.3799445629119873,-1.292590856552124
1717013195196860400,47.5928603515625,-0.22968533635139465,1.1447614431381226,-1.1520918607711792
1717013195236874500,47.63287451171875,-0.2987131178379059,0.9388998746871948,-0.9731083512306213
1717013195276883000,47.67288305664062,-0.40622538328170776,0.6352998614311218,-1.1551461219787598
1717013195316858400,47.7128583984375,-0.24923302233219147,0.9431759119033813,-1.9566013813018799
1717013195356869600,47.75286962890625,0.2981022298336029,1.938886284828186,-2.193617105484009
1717013195396878300,47.79287841796875,0.19120082259178162,1.4391984939575195,-0.23884831368923187
1717013195436883700,47.8328837890625,-0.4251621961593628,-0.1258382350206375,1.4752395153045654
1717013195476862700,47.87286279296875,-0.46364670991897583,-0.6285803318023682,1.3255776166915894
1717013195516873500,47.91287353515625,-0.012217304669320583,-0.2076941877603531,0.3341432809829712
1717013195556879000,47.95287915039062,0.0806342139840126,0.5467243790626526,-0.4398229718208313
1717013195596860000,47.99285986328125,0.01466076634824276,0.4703662395477295,-0.07452555745840073
1717013195636868400,48.03286840820312,-0.04642575979232788,-0.24190263450145721,0.5668829679489136
1717013195676874000,48.0728740234375,0.1062905490398407,-0.7721336483955383,0.6499606370925903
1717013195716885800,48.1128857421875,0.17898350954055786,-0.8289441466331482,0.252287358045578
1717013195756863500,48.15286352539062,0.11972958594560623,-0.6017022728919983,-0.4660901725292206
1717013195796867300,48.19286743164062,-0.042760565876960754,-0.6200281977653503,-0.5436700582504272
1717013195836878600,48.23287866210938,-0.5723807215690613,-0.3805690407752991,0.12889257073402405
1717013195876887300,48.27288720703125,-0.8069530129432678,-0.44104471802711487,0.5619960427284241
1717013195916862500,48.31286254882812,-1.395827054977417,-0.7727445363998413,0.6139195561408997
1717013195956874000,48.3528740234375,-1.9645426273345947,-0.46670106053352356,0.2376265823841095
1717013195996884500,48.392884521484376,-2.2400429248809814,0.045204028487205505,-0.16065755486488342
1717013196036860000,48.43285986328125,-2.420858860015869,0.27122417092323303,0.013439035043120384
1717013196076871000,48.47287084960937,-2.252260208129883,-0.29565876722335815,0.17409659922122955
1717013196116880000,48.5128798828125,-2.101987361907959,-0.6023131608963013,0.45631635189056396
1717013196156882700,48.55288256835937,-2.202169179916382,-0.788627028465271,0.1820378452539444
1717013196196866000,48.59286596679687,-2.2455406188964844,-0.18936823308467865,-0.20036379992961884
1717013196236872400,48.63287255859375,-2.034792184829712,0.06658431142568588,0.0757472887635231
1717013196276878000,48.672878173828124,-1.7959438562393188,0.607200026512146,-0.5076290369033813
1717013196316859100,48.71285913085938,-1.7635679244995117,1.510058879852295,-0.8362745046615601
1717013196356867800,48.752867919921876,-1.8808541297912598,0.4746423065662384,-0.23945917189121246
1717013196396873500,48.79287353515625,-2.166128158569336,-1.341460108757019,0.40256020426750183
1717013196436884700,48.832884765625,-2.2773056030273438,-0.8478809595108032,-0.1569923609495163
1717013196476863000,48.872863037109376,-1.33168625831604,0.015271631069481373,-0.09407325088977814
1717013196516868400,48.912868408203124,-0.9199630618095398,-0.05192354694008827,-0.26450464129447937
1717013196556880000,48.9528798828125,-1.1759155988693237,0.2742784917354584,-0.10934487730264664
1717013196596857900,48.99285791015625,-1.2608258724212646,0.523511528968811,0.2828305959701538
1717013196636863500,49.032863525390624,-0.9272934198379517,-0.6860016584396362,0.656069278717041
1717013196676875000,49.072875,-0.8521569967269897,-1.1924089193344116,0.27550023794174194
1717013196716885800,49.1128857421875,-0.5082398653030396,-0.29626965522766113,-0.6688974499702454
1717013196756860700,49.152860595703125,-0.24556782841682434,0.485027015209198,-1.0403034687042236
1717013196796870000,49.192869873046874,-0.33536502718925476,0.7825183868408203,-0.7195992469787598
1717013196836878600,49.23287866210938,0.797789990901947,1.150259256362915,-0.07635815441608429
1717013196876886500,49.27288647460937,1.568701982498169,-0.5809328556060791,0.2583959996700287
1717013196916848000,49.31284814453125,0.17959438264369965,-0.27977627515792847,-0.294437050819397
1717013196956856300,49.352856201171875,-0.12339477986097336,-0.4502076804637909,-0.25534167885780334
1717013196996860000,49.39285986328125,-0.3433062732219696,-0.6322455406188965,-0.10201449692249298
1717013197036843000,49.43284301757812,-1.0775662660598755,0.1417207419872284,-0.26572638750076294
1717013197076851700,49.47285180664063,-0.617584764957428,0.05009094998240471,0.04153883829712868
1717013197116857300,49.512857421875,-0.2076941877603531,-0.1014036312699318,-0.10567969083786011
1717013197156868000,49.5528681640625,0.1514945775270462,0.2889392673969269,-0.05009094998240471
1717013197196846300,49.592846435546875,0.5161811113357544,-0.06291911751031876,0.19792033731937408
