time,seconds_elapsed,z,y,x
1717009637513429200,0.06842919921875,-0.294675350189209,-0.23409271240234375,0.10458207130432129
1717009637553438000,0.10843798828125,-0.3027033805847168,-0.19954681396484375,0.1651604175567627
1717009637593416000,0.148416015625,0.4909539222717285,-1.14646577835083,2.452139139175415
1717009637633424400,0.18842431640625,-2.248542308807373,-0.02164745330810547,1.0964542627334595
1717009637673432800,0.228432861328125,-8.59775447845459,-1.7959816455841064,0.19792544841766357
1717009637713441500,0.268441650390625,4.296648025512695,3.0384979248046875,-8.60885238647461
1717009637753419500,0.30841943359375,1.8145055770874023,0.1481761932373047,-1.641618251800537
1717009637793428000,0.348427978515625,3.9941978454589844,0.41085171699523926,0.16141438484191895
1717009637833436700,0.388436767578125,1.749516487121582,0.9814321994781494,-0.6398681998252869
1717009637873414700,0.42841455078125,-3.118529796600342,2.100987434387207,-1.3862848281860352
1717009637913423000,0.468423095703125,-0.4445991516113281,2.9184389114379883,-3.5606613159179688
1717009637953431800,0.508431884765625,-1.274521827697754,3.900367259979248,-7.913878440856934
1717009637993440300,0.548440185546875,5.451152801513672,4.467696666717529,-5.544548034667969
1717009638033418200,0.588418212890625,6.410975456237793,-4.06345272064209,5.179118633270264
1717009638073427000,0.628427001953125,-0.49318838119506836,-5.149824619293213,5.785834312438965
1717009638113435400,0.668435302734375,0.42404890060424805,-6.824445724487305,7.221063137054443
1717009638183534300,0.738534423828125,3.6693382263183594,-4.741997718811035,4.344821453094482
1717009638243531800,0.79853173828125,2.590160846710205,-1.9417204856872559,-0.25217270851135254
1717009638303529200,0.858529296875,6.455904960632324,-0.8013296127319336,-1.3219109773635864
1717009638363527200,0.918527099609375,5.069710731506348,-0.772977352142334,-1.6197841167449951
1717009638423555000,0.97855517578125,3.82603120803833,-0.512904167175293,-1.5925230979919434
1717009638483552500,1.038552490234375,1.8940134048461914,-0.3663473129272461,-1.4114164113998413
1717009638543550200,1.09855029296875,0.47130823135375977,-1.6729011535644531,-1.1066128015518188
1717009638603547600,1.158547607421875,3.345447063446045,-2.0957303047180176,-2.0542144775390625
1717009638663545300,1.21854541015625,-0.8342561721801758,-1.8367791175842285,-0.8448436260223389
1717009638723542800,1.278542724609375,2.265927791595459,-2.098966121673584,-0.5416423678398132
1717009638783540500,1.33854052734375,-1.1926884651184082,-2.574873924255371,-0.38715988397598267
1717009638843538000,1.398537841796875,-0.46161985397338867,-2.938322067260742,-0.10644377768039703
1717009638903535400,1.458535400390625,-1.7587127685546875,-2.8375983238220215,-0.27624937891960144
1717009638963533000,1.518532958984375,-1.8527462482452393,-2.8433704376220703,-0.5838618278503418
1717009639023530500,1.578530517578125,-1.232923984527588,-2.188361644744873,-0.7380601167678833
1717009639083528200,1.638528076171875,-0.8978004455566406,-1.8252573013305664,-0.8585926294326782
1717009639143556400,1.698556396484375,-0.7992706298828125,-1.8627700805664062,0.18902093172073364
1717009639203553800,1.7585537109375,-0.30251169204711914,-2.4617185592651367,0.24122527241706848
1717009639263551500,1.818551513671875,-3.201688289642334,-2.9249000549316406,-0.3708188533782959
1717009639323549000,1.878548828125,0.2581181526184082,-3.733999729156494,0.1294272541999817
1717009639383546600,1.938546630859375,-0.8964700698852539,-6.854881763458252,2.346161127090454
1717009639443544000,1.9985439453125,-5.77875280380249,-10.803678512573242,-0.50140780210495
1717009639503541500,2.05854150390625,-4.056482791900635,-12.739763259887695,6.898690223693848
1717009639563539200,2.118539306640625,5.608703136444092,-4.975490093231201,18.037620544433594
1717009639623536600,2.17853662109375,13.771139144897461,0.4339790344238281,14.374056816101074
1717009639683534300,2.238534423828125,5.845964431762695,8.6029691696167,8.578407287597656
1717009639743531800,2.29853173828125,5.5260329246521,18.844484329223633,-0.14455890655517578
1717009639803529200,2.358529296875,9.24162483215332,22.749435424804688,-6.406181335449219
1717009639863527200,2.418527099609375,13.486320495605469,13.27701187133789,3.5328941345214844
1717009639923555000,2.47855517578125,11.499728202819824,11.57447624206543,21.952377319335938
1717009639983552500,2.538552490234375,4.901866912841797,-1.894141435623169,19.775819778442383
1717009640043550200,2.59855029296875,-2.1953988075256348,-16.577152252197266,2.5310921669006348
1717009640103547600,2.658547607421875,1.165452480316162,-30.52573013305664,-1.2611274719238281
1717009640163545300,2.71854541015625,-7.592563152313232,-36.27870178222656,-12.420919418334961
1717009640223542800,2.778542724609375,6.204113006591797,-25.666391372680664,26.807098388671875
1717009640283540500,2.83854052734375,12.025931358337402,6.656472206115723,44.32181167602539
1717009640343538000,2.898537841796875,10.228757858276367,18.081844329833984,16.297592163085938
1717009640403535400,2.958535400390625,13.317596435546875,19.62575912475586,-2.0065603256225586
1717009640463533000,3.018532958984375,10.00867748260498,19.37137794494629,-24.567977905273438
1717009640523530500,3.078530517578125,-4.748578071594238,15.223231315612793,-14.176593780517578
1717009640583528200,3.138528076171875,12.337966918945312,11.323606491088867,9.244714736938477
1717009640643556400,3.198556396484375,13.7943754196167,14.551268577575684,27.715595245361328
1717009640703553800,3.2585537109375,-0.16936111450195312,-5.780345916748047,20.464380264282227
1717009640763551500,3.318551513671875,10.665287971496582,-22.360374450683594,2.98250150680542
1717009640823549000,3.378548828125,-6.5010294914245605,-34.50957489013672,-1.7243099212646484
1717009640883546600,3.438546630859375,-2.7092626094818115,-28.081531524658203,3.652320623397827
1717009640943544000,3.4985439453125,4.718350410461426,-6.483543395996094,26.63214874267578
1717009641003541500,3.55854150390625,11.678729057312012,20.018123626708984,27.39695930480957
1717009641063539200,3.618539306640625,10.027103424072266,23.39565086364746,7.464451789855957
1717009641123536600,3.67853662109375,6.594343662261963,18.057985305786133,-14.028718948364258
1717009641183534300,3.738534423828125,8.53151798248291,9.422698974609375,-9.344310760498047
1717009641243531800,3.79853173828125,8.067560195922852,-0.1524496078491211,2.817072868347168
1717009641303529200,3.858529296875,5.803839683532715,8.28332805633545,14.453996658325195
1717009641363527200,3.918527099609375,-1.6346490383148193,1.905442237854004,11.532919883728027
1717009641423555000,3.97855517578125,0.9925892353057861,-19.016307830810547,6.917028427124023
1717009641483552500,4.038552490234375,1.2483881711959839,-28.597885131835938,-5.10783052444458
1717009641543550200,4.09855029296875,-1.2865180969238281,-21.835453033447266,12.44996452331543
1717009641603547600,4.158547607421875,5.513544082641602,-10.823541641235352,16.127418518066406
1717009641663545300,4.21854541015625,6.708846092224121,12.163145065307617,24.870372772216797
1717009641723542800,4.278542724609375,10.37662124633789,17.087051391601562,11.423308372497559
1717009641783540500,4.33854052734375,4.493911266326904,18.218717575073242,-0.9813446998596191
1717009641843538000,4.398537841796875,11.187722206115723,14.221095085144043,-12.08659839630127
1717009641903535400,4.458535400390625,10.644610404968262,6.697376728057861,-11.267638206481934
1717009641963533000,4.518532958984375,18.1536808013916,2.308746337890625,-0.3074760437011719
1717009642023530500,4.578530517578125,12.429035186767578,14.06467056274414,28.15911865234375
1717009642083528200,4.638528076171875,7.782090187072754,-1.187760353088379,12.535989761352539
1717009642143556400,4.698556396484375,4.877064228057861,-15.976179122924805,-0.9645700454711914
1717009642203553800,4.7585537109375,3.3051512241363525,-21.528865814208984,0.10292577743530273
1717009642263551500,4.818551513671875,-2.266549587249756,-22.578432083129883,-4.462591648101807
1717009642323549000,4.878548828125,-4.4729228019714355,-15.469083786010742,3.653059482574463
1717009642383546600,4.938546630859375,7.9458537101745605,10.114189147949219,28.952409744262695
1717009642443544000,4.9985439453125,-2.7711009979248047,14.908428192138672,11.811599731445312
1717009642503541500,5.05854150390625,2.9014477729797363,18.046905517578125,0.29038429260253906
1717009642563539200,5.118539306640625,3.1050992012023926,17.33624267578125,-12.12503719329834
1717009642623536600,5.17853662109375,5.970096111297607,11.740226745605469,-13.255470275878906
1717009642683534300,5.238534423828125,1.3018224239349365,8.523014068603516,-3.814295768737793
1717009642743531800,5.29853173828125,9.753474235534668,11.091071128845215,6.018084526062012
1717009642803529200,5.358529296875,13.006837844848633,11.409784317016602,24.57239532470703
1717009642863527200,5.418527099609375,2.8930253982543945,-4.843999862670898,9.12376594543457
1717009642923555000,5.47855517578125,7.474776268005371,-17.00289535522461,-0.20929503440856934
1717009642983552500,5.538552490234375,-2.7082531452178955,-22.345518112182617,-1.6200993061065674
1717009643043550200,5.59855029296875,-1.5052908658981323,-20.886075973510742,-2.162235736846924
1717009643103548000,5.6585478515625,-6.2424750328063965,-13.848320960998535,9.910354614257812
1717009643163545300,5.71854541015625,4.472332954406738,14.514518737792969,31.452848434448242
1717009643223542800,5.778542724609375,2.2268364429473877,18.45417022705078,12.815139770507812
1717009643263467000,5.818467041015625,4.202361583709717,18.959075927734375,5.834421157836914
1717009643314034700,5.86903466796875,-2.85318660736084,15.429998397827148,-10.764900207519531
1717009643354012700,5.9090126953125,-1.5167546272277832,13.72459888458252,-17.31403160095215
1717009643394021000,5.949021240234375,-1.1201364994049072,10.749388694763184,-16.978397369384766
1717009643434029800,5.98902978515625,2.232766628265381,10.139459609985352,-10.779585838317871
1717009643474007800,6.0290078125,0.9332259297370911,11.174593925476074,-1.1386146545410156
1717009643514016300,6.069016357421875,9.109830856323242,12.652226448059082,5.535368919372559
1717009643554025000,6.10902490234375,10.141454696655273,14.774927139282227,14.584615707397461
1717009643594033400,6.149033447265625,0.6732029914855957,14.278214454650879,28.06878662109375
1717009643634011400,6.189011474609375,-0.7667750716209412,3.3428215980529785,17.696758270263672
1717009643674020000,6.22902001953125,1.1272602081298828,-9.619900703430176,6.575584411621094
1717009643714028500,6.269028564453125,-1.9316201210021973,-17.00726318359375,0.13575196266174316
1717009643754006500,6.309006591796875,-1.0066869258880615,-20.20421028137207,2.898267984390259
1717009643794015200,6.34901513671875,-6.942684173583984,-24.123313903808594,2.2549729347229004
1717009643834023700,6.389023681640625,-8.821422576904297,-22.22372817993164,-0.7301689386367798
1717009643874032400,6.429032470703125,-5.372544288635254,-16.289993286132812,5.8811798095703125
1717009643914010000,6.469010009765625,0.3224818706512451,1.955519676208496,13.102865219116211
1717009643954018800,6.509018798828125,6.071232795715332,19.536291122436523,23.926000595092773
1717009643994027300,6.54902734375,1.5944463014602661,21.778427124023438,9.154263496398926
1717009644034005200,6.589005126953125,3.296630859375,18.640716552734375,-1.1117138862609863
1717009644074014000,6.629013916015625,1.9210022687911987,14.458765029907227,-11.910319328308105
1717009644114022700,6.669022705078125,3.2811977863311768,11.517346382141113,-16.098630905151367
1717009644154031000,6.709031005859375,-1.1762851476669312,4.720475196838379,-16.556432723999023
1717009644194009000,6.749009033203125,1.4205522537231445,1.6794333457946777,-11.946345329284668
1717009644234017500,6.789017578125,-5.700989246368408,1.6771388053894043,-3.438321113586426
1717009644274026200,6.829026123046875,1.3350129127502441,7.390567779541016,-2.75600528717041
1717009644314034700,6.86903466796875,16.26329803466797,20.363147735595703,10.773462295532227
1717009644354012700,6.9090126953125,-7.724552154541016,12.352361679077148,14.530780792236328
1717009644394021400,6.949021484375,-8.648725509643555,-0.6995725631713867,3.522181987762451
1717009644434029800,6.98902978515625,0.8335281610488892,-8.56479549407959,4.9860687255859375
1717009644474007800,7.0290078125,0.7770324349403381,-13.085168838500977,7.766802787780762
1717009644514016300,7.069016357421875,2.906893014907837,-18.356626510620117,13.672103881835938
1717009644554025000,7.10902490234375,-1.7021119594573975,-21.538917541503906,8.475205421447754
1717009644594033700,7.14903369140625,-5.02836799621582,-21.27108383178711,5.591757297515869
1717009644634011400,7.189011474609375,-5.249012470245361,-18.44228744506836,11.728761672973633
1717009644674020000,7.22902001953125,5.789231300354004,-1.7793769836425781,26.21768569946289
1717009644714028500,7.269028564453125,9.180501937866211,19.30140495300293,30.52756690979004
1717009644754006500,7.309006591796875,9.123025894165039,24.094200134277344,24.573659896850586
1717009644794015200,7.34901513671875,5.031172752380371,24.160552978515625,5.690861701965332
1717009644834023700,7.389023681640625,2.5870559215545654,17.623897552490234,-4.090311050415039
1717009644874032400,7.429032470703125,9.304121017456055,13.436074256896973,-16.921154022216797
1717009644914010000,7.469010009765625,-1.8569594621658325,12.77899169921875,-19.233028411865234
1717009644954018800,7.509018798828125,-1.4880270957946777,7.198267459869385,-16.53632926940918
1717009644994027300,7.54902734375,6.892602920532227,4.736696243286133,-7.938761234283447
1717009645034005500,7.589005615234375,6.185717582702637,10.824880599975586,0.23575258255004883
1717009645074013000,7.629012939453125,10.37530517578125,20.664409637451172,12.321365356445312
1717009645134591500,7.689591552734375,0.8926435708999634,9.144986152648926,14.196806907653809
1717009645194589000,7.7495888671875,-1.5374176502227783,-5.098245620727539,6.328365325927734
1717009645254586400,7.80958642578125,-1.5183031558990479,-15.166351318359375,7.081029415130615
1717009645314584000,7.869583984375,-2.932168483734131,-23.33477783203125,8.557389259338379
1717009645374581500,7.92958154296875,-7.033499240875244,-20.401941299438477,5.239821910858154
1717009645434579200,7.9895791015625,8.23129940032959,5.907284736633301,22.41844940185547
1717009645494576600,8.04957666015625,0.29646551609039307,12.730899810791016,14.664990425109863
1717009645554574300,8.10957421875,7.196508884429932,13.436151504516602,4.1687912940979
1717009645614571800,8.16957177734375,6.945962429046631,11.872028350830078,-7.607417106628418
1717009645674569200,8.2295693359375,-1.8901865482330322,11.365036010742188,-16.182418823242188
1717009645734567000,8.28956689453125,3.5851874351501465,4.770852088928223,-9.307310104370117
1717009645794564400,8.349564453125,4.603057384490967,14.893867492675781,4.006885051727295
1717009645854592500,8.409592529296875,0.7890814542770386,16.54254913330078,11.748873710632324
1717009645914590200,8.469590087890625,-2.402573585510254,3.786545753479004,5.433274269104004
1717009645974587600,8.529587646484375,1.7236504554748535,-11.752645492553711,6.304035663604736
1717009646034585300,8.58958544921875,0.024881184101104736,-21.121070861816406,9.886922836303711
1717009646094582800,8.649582763671875,-4.165525913238525,-23.007038116455078,4.624569416046143
1717009646154580200,8.709580322265625,-3.6092934608459473,-16.824718475341797,8.22358226776123
1717009646214578000,8.769577880859375,10.013664245605469,10.658066749572754,27.319181442260742
1717009646274575400,8.829575439453125,12.981493949890137,10.404682159423828,15.047056198120117
1717009646334573000,8.889572998046875,-0.8632611036300659,-15.237188339233398,13.334967613220215
1717009646394570500,8.949570556640625,44.87912368774414,-15.293350219726562,-11.581887245178223
1717009646454568200,9.009568115234375,-6.782347679138184,-0.1757521629333496,-14.753348350524902
1717009646514565600,9.069565673828125,11.57962417602539,-3.295729160308838,-14.38018798828125
1717009646574563300,9.129563232421875,17.043529510498047,-2.4840102195739746,2.8258237838745117
1717009646634591500,9.189591552734376,19.897937774658203,-2.422248363494873,14.113669395446777
1717009646694589000,9.2495888671875,6.6844635009765625,-5.149733543395996,18.397916793823242
1717009646754586400,9.30958642578125,-7.6338043212890625,-6.522007942199707,7.981119632720947
1717009646814584000,9.369583984375,-3.3411061763763428,-12.075854301452637,-1.41176176071167
1717009646874581500,9.42958154296875,-7.756593227386475,-14.156524658203125,-6.806482315063477
1717009646934579200,9.4895791015625,-1.739187479019165,-15.765008926391602,-1.8951106071472168
1717009646994576600,9.54957666015625,-7.199960708618164,-13.64736557006836,-0.6948971748352051
1717009647054574300,9.60957421875,-2.29475736618042,-7.093033790588379,9.815116882324219
1717009647114571800,9.66957177734375,10.024310111999512,-9.406357765197754,19.656517028808594
1717009647174569200,9.7295693359375,23.457901000976562,0.844562292098999,5.610583305358887
1717009647234567000,9.78956689453125,12.353649139404297,6.940916538238525,-8.180339813232422
1717009647294564400,9.849564453125,6.309235572814941,8.63654613494873,-13.128257751464844
1717009647354592500,9.909592529296875,4.702958106994629,2.035567283630371,-9.033902168273926
1717009647414590200,9.969590087890625,3.475198745727539,4.715066909790039,1.2678427696228027
1717009647474587600,10.029587646484375,15.650256156921387,4.668374061584473,22.54865074157715
1717009647534585300,10.08958544921875,3.6555075645446777,-5.793809413909912,10.849150657653809
1717009647594582800,10.149582763671875,-4.420082092285156,-11.802238464355469,1.8032336235046387
1717009647654580200,10.209580322265625,-0.7056926488876343,-17.144977569580078,0.39152413606643677
1717009647714578000,10.269577880859375,-1.4366233348846436,-20.82440948486328,-2.7853846549987793
1717009647774575400,10.329575439453125,-3.125903606414795,-19.609622955322266,-0.9121663570404053
1717009647834573000,10.389572998046875,-1.8954203128814697,-16.702205657958984,8.776078224182129
1717009647894570500,10.449570556640625,8.26948070526123,-1.33538818359375,32.55112838745117
1717009647954568200,10.509568115234375,9.081865310668945,12.263185501098633,29.545574188232422
1717009648014565600,10.569565673828125,8.266059875488281,17.012367248535156,5.433187484741211
1717009648074563300,10.629563232421875,9.704593658447266,13.392595291137695,-9.385592460632324
1717009648134591500,10.689591552734376,1.5149072408676147,12.765849113464355,-11.228917121887207
1717009648194589000,10.7495888671875,6.937589645385742,3.9516844749450684,-5.461432456970215
1717009648254586400,10.80958642578125,18.552217483520508,10.131576538085938,10.188594818115234
1717009648314584000,10.869583984375,1.593921184539795,10.02187728881836,30.311206817626953
1717009648374581500,10.92958154296875,-1.4383914470672607,-3.7885890007019043,9.899906158447266
1717009648434579200,10.9895791015625,3.580554962158203,-14.401667594909668,3.292678117752075
1717009648494576600,11.04957666015625,5.573351860046387,-21.237455368041992,5.1328229904174805
1717009648554574300,11.10957421875,4.687676429748535,-21.250606536865234,4.162022590637207
1717009648614571800,11.16957177734375,-1.1697893142700195,-18.661216735839844,0.973084568977356
1717009648674569200,11.2295693359375,1.3805406093597412,-6.310741424560547,22.714879989624023
1717009648734567000,11.28956689453125,8.890754699707031,9.760496139526367,31.99655532836914
1717009648794564400,11.349564453125,8.440962791442871,12.571235656738281,15.046974182128906
1717009648854592500,11.409592529296875,9.468302726745605,10.284141540527344,-1.7687830924987793
1717009648914590200,11.469590087890625,10.409029006958008,11.168502807617188,-12.78152847290039
1717009648974587600,11.529587646484375,3.426159381866455,5.735330581665039,-9.553308486938477
1717009649034585300,11.58958544921875,2.9114651679992676,5.757755279541016,4.050431251525879
1717009649094582800,11.649582763671875,7.5494184494018555,9.474613189697266,26.414791107177734
1717009649154580500,11.70958056640625,-6.927157878875732,-0.20257186889648438,15.518683433532715
1717009649214630100,11.769630126953125,0.24295759201049805,-8.367818832397461,4.304419040679932
1717009649274627600,11.829627685546875,2.487607002258301,-12.401525497436523,0.9445275068283081
1717009649334625300,11.889625244140625,0.3153538703918457,-14.778627395629883,2.1766252517700195
1717009649394622700,11.949622802734375,-2.5981087684631348,-16.186119079589844,3.290497303009033
1717009649454620400,12.009620361328125,-7.422513961791992,-16.169761657714844,0.405830055475235
1717009649514617900,12.069617919921875,11.588069915771484,4.579537391662598,42.74763488769531
1717009649574615300,12.129615234375,0.6114736795425415,4.560894966125488,19.64246368408203
1717009649634643700,12.189643798828126,7.52721643447876,3.8575491905212402,8.794747352600098
1717009649694641200,12.24964111328125,3.412210464477539,4.070911884307861,-4.011127471923828
1717009649754638600,12.309638671875,2.5795798301696777,5.610448837280273,-9.273733139038086
1717009649814636300,12.36963623046875,-2.1021809577941895,2.3531136512756348,-5.8467254638671875
1717009649874633700,12.4296337890625,10.720544815063477,8.577847480773926,8.718587875366211
1717009649934631400,12.48963134765625,0.19309091567993164,10.862401962280273,20.673748016357422
1717009649994628900,12.54962890625,-7.716024398803711,-2.274024486541748,10.034282684326172
1717009650054626600,12.60962646484375,-0.4903841018676758,-9.696412086486816,4.299742221832275
1717009650114624000,12.6696240234375,-2.5447516441345215,-13.980803489685059,3.4207491874694824
1717009650174621400,12.729621337890626,-6.001804351806641,-16.04195785522461,2.73681640625
1717009650214630100,12.769630126953125,-3.7112226486206055,-16.144437789916992,0.8200518488883972
1717009650255188000,12.81018798828125,-6.123755931854248,-15.882240295410156,-0.9896236658096313
1717009650295196400,12.850196533203125,-3.0213937759399414,-11.029909133911133,7.9200639724731445
1717009650335174400,12.89017431640625,5.548577308654785,4.126168251037598,35.975135803222656
1717009650375183000,12.93018310546875,-3.075085401535034,11.948060989379883,24.772764205932617
1717009650415191800,12.97019189453125,-0.5990808010101318,8.494884490966797,10.111068725585938
1717009650455169800,13.010169677734375,3.7947120666503906,4.555392742156982,1.9548134803771973
1717009650495178200,13.05017822265625,-0.3386380672454834,3.9536051750183105,-5.628093242645264
1717009650535186700,13.090186767578125,-2.7377073764801025,4.255958557128906,-6.808404445648193
1717009650575195400,13.1301953125,-3.5045857429504395,3.2686848640441895,-5.614218711853027
1717009650615173400,13.17017333984375,-3.268874168395996,1.171799659729004,-7.8540568351745605
1717009650655181800,13.210181884765625,-3.1449410915374756,1.3060054779052734,-2.8600728511810303
1717009650695190500,13.2501904296875,-1.6620357036590576,4.685671806335449,-1.9151573181152344
1717009650735168500,13.29016845703125,1.450376033782959,9.558578491210938,10.260234832763672
1717009650775177000,13.330177001953125,-5.021064758300781,12.641336441040039,12.452762603759766
1717009650815185700,13.370185546875,-2.3131580352783203,7.193647384643555,15.582958221435547
1717009650855194000,13.410194091796875,0.16672992706298828,1.4911937713623047,6.278336048126221
1717009650895172400,13.45017236328125,-3.363629102706909,-3.3853821754455566,3.59791898727417
1717009650935180500,13.4901806640625,-7.671330451965332,-7.0978779792785645,1.0671734809875488
1717009650975189200,13.530189208984375,-5.6722564697265625,-10.371360778808594,0.23674476146697998
1717009651015197700,13.57019775390625,-1.724542498588562,-13.412322998046875,0.9738458395004272
1717009651055176000,13.610176025390626,-2.3349592685699463,-15.765680313110352,4.015419960021973
1717009651095184400,13.650184326171875,-8.083047866821289,-16.282182693481445,1.2373020648956299
1717009651135192800,13.69019287109375,-5.757556438446045,-14.045350074768066,1.617517352104187
1717009651175171000,13.730171142578126,3.1387739181518555,-2.7127857208251953,22.954668045043945
1717009651215179300,13.77017919921875,-3.1114392280578613,9.33039379119873,17.568620681762695
1717009651255188000,13.81018798828125,-3.057330369949341,13.380758285522461,15.990806579589844
1717009651295196400,13.850196533203125,1.9474878311157227,13.383513450622559,7.926636695861816
1717009651335174700,13.890174560546875,-0.7910113334655762,12.494894027709961,-1.1101417541503906
1717009651375183000,13.93018310546875,-3.0166373252868652,9.392035484313965,-7.365403175354004
1717009651415191600,13.970191650390625,-3.185591697692871,6.564352512359619,-12.056183815002441
1717009651455169800,14.010169677734375,-5.156282901763916,5.975943565368652,-7.361306190490723
1717009651495178200,14.05017822265625,-3.738069534301758,3.8197021484375,-6.569530487060547
1717009651535186700,14.090186767578125,1.8672003746032715,5.010732173919678,2.848043918609619
1717009651575195400,14.1301953125,0.5562739372253418,8.7937650680542,6.8496527671813965
1717009651615173400,14.17017333984375,-2.084725856781006,11.746932983398438,16.402305603027344
1717009651655181800,14.210181884765625,-0.7521347999572754,7.460262298583984,14.660274505615234
1717009651695190500,14.2501904296875,-2.5531649589538574,0.2305164337158203,5.037274360656738
1717009651735168500,14.29016845703125,-6.891061305999756,-7.1833648681640625,5.555674076080322
1717009651775177000,14.330177001953125,-2.8031249046325684,-13.657827377319336,-0.7402279376983643
1717009651815185700,14.370185546875,2.262636184692383,-16.642459869384766,3.47377872467041
1717009651855194000,14.410194091796875,-5.643916606903076,-18.207910537719727,2.5744214057922363
1717009651895172400,14.45017236328125,-7.670198440551758,-17.81534194946289,-0.5783791542053223
1717009651935180500,14.4901806640625,-7.169951438903809,-16.317350387573242,0.12748540937900543
1717009651975189200,14.530189208984375,-4.093033790588379,-7.407280921936035,12.065140724182129
1717009652015197700,14.57019775390625,1.9940223693847656,6.87912654876709,33.36406326293945
1717009652055176000,14.610176025390626,-4.07672119140625,13.217765808105469,17.17205810546875
1717009652095764200,14.65076416015625,1.8329012393951416,14.502029418945312,12.182819366455078
1717009652135772700,14.690772705078125,1.7489185333251953,13.763063430786133,1.8337602615356445
1717009652195770400,14.750770263671875,-2.7454171180725098,13.132946014404297,-7.555388927459717
1717009652255767800,14.810767822265625,-5.693103790283203,8.188220024108887,-11.698264122009277
1717009652315765500,14.870765625,-2.6946797370910645,2.8636326789855957,-3.7022390365600586
1717009652375763000,14.930762939453125,7.259071350097656,14.078622817993164,10.99951171875
1717009652435760600,14.9907607421875,-2.0817761421203613,8.813697814941406,18.541088104248047
1717009652495758000,15.050758056640625,-5.132511138916016,-1.6131653785705566,1.448559045791626
1717009652555755500,15.110755615234375,-6.7539567947387695,-8.820993423461914,3.923518180847168
1717009652615753200,15.170753173828125,-2.010833501815796,-14.776496887207031,3.3333535194396973
1717009652675750700,15.230750732421875,-6.352681636810303,-17.270545959472656,3.8183677196502686
1717009652735748400,15.290748291015625,-6.926839828491211,-14.140495300292969,0.7649188041687012
1717009652795745800,15.350745849609375,-4.1450653076171875,-0.3581361770629883,20.056188583374023
1717009652855774200,15.410774169921876,1.3875198364257812,9.150734901428223,15.269645690917969
1717009652915771400,15.470771484375,-5.557025909423828,13.453746795654297,11.480192184448242
1717009652975769000,15.53076904296875,4.546184062957764,11.107555389404297,-4.571012496948242
1717009653035766800,15.590766845703126,0.029074430465698242,10.535551071166992,-7.895786762237549
1717009653095764200,15.65076416015625,-2.40154767036438,4.24068021774292,-7.357199192047119
1717009653155761700,15.71076171875,0.022736549377441406,7.647306442260742,5.700759410858154
1717009653215759400,15.77075927734375,0.09260010719299316,10.962142944335938,11.169906616210938
1717009653275756800,15.8307568359375,-6.945250988006592,4.512408256530762,8.823686599731445
1717009653335754500,15.89075439453125,-4.563899040222168,-7.22814416885376,3.651383876800537
1717009653395752000,15.950751953125,-4.775209426879883,-14.65700912475586,1.1309276819229126
1717009653455749600,16.01074951171875,-5.533008575439453,-16.514047622680664,1.4480345249176025
1717009653515747000,16.0707470703125,-9.533029556274414,-15.031269073486328,-3.209366798400879
1717009653575744500,16.13074462890625,-1.6598262786865234,-11.320514678955078,10.35894775390625
1717009653635772700,16.190772705078125,1.546087622642517,-2.2211759090423584,24.04327392578125
1717009653695770400,16.250770263671875,13.008691787719727,6.918079376220703,20.34231948852539
1717009653755767800,16.310767822265625,6.621598243713379,12.827588081359863,9.484515190124512
1717009653815765500,16.370765625,11.99402904510498,11.610955238342285,-5.574329376220703
1717009653875763000,16.430762939453125,5.321604251861572,10.301213264465332,-7.054627418518066
1717009653935760600,16.4907607421875,1.7607489824295044,8.151872634887695,-3.708646774291992
1717009653995758000,16.550758056640625,3.9078376293182373,8.316753387451172,0.6755962371826172
1717009654055755500,16.610755615234375,3.3808937072753906,9.255261421203613,7.295225620269775
1717009654115753200,16.670753173828125,-2.050543785095215,3.9590845108032227,3.8482346534729004
1717009654175750700,16.730750732421875,0.05804753303527832,-5.29935359954834,-2.137331485748291
1717009654235748400,16.790748291015625,0.5840613842010498,-13.003559112548828,-4.488156795501709
1717009654295745800,16.850745849609375,1.4060453176498413,-16.382648468017578,-1.7675949335098267
1717009654355774200,16.910774169921876,0.28489017486572266,-14.363149642944336,-0.3502347469329834
1717009654415771600,16.970771728515626,2.4485015869140625,-4.89324951171875,11.834419250488281
1717009654475769000,17.03076904296875,9.536687850952148,5.705254077911377,20.916059494018555
1717009654535766800,17.090766845703126,10.045671463012695,12.119207382202148,11.290759086608887
1717009654595764200,17.15076416015625,4.716937065124512,14.805709838867188,2.54400634765625
1717009654655761700,17.21076171875,11.67628288269043,11.017285346984863,-7.336565971374512
1717009654715759400,17.27075927734375,3.993351936340332,3.2156970500946045,-10.809826850891113
1717009654775756800,17.3307568359375,1.3733949661254883,1.4162211418151855,-1.5818805694580078
1717009654835754500,17.39075439453125,11.62179946899414,13.657061576843262,17.4876708984375
1717009654895752000,17.450751953125,2.823087692260742,7.237148284912109,18.54937744140625
1717009654955749600,17.51074951171875,3.9836459159851074,-1.575211524963379,3.633143901824951
1717009655015747000,17.5707470703125,1.3735158443450928,-9.664969444274902,0.4975026845932007
1717009655075744500,17.63074462890625,7.094915390014648,-16.487531661987305,1.162401556968689
1717009655135772700,17.690772705078125,-1.4538464546203613,-17.597145080566406,-4.149569511413574
1717009655195770000,17.75077001953125,-0.9186091423034668,-14.22664737701416,-1.5989487171173096
1717009655255767800,17.810767822265625,8.636786460876465,-1.8665404319763184,22.003435134887695
1717009655315765500,17.870765625,-0.3655691146850586,9.643531799316406,19.957887649536133
1717009655375763000,17.930762939453125,8.795236587524414,14.8366060256958,11.053104400634766
1717009655435760600,17.9907607421875,8.617647171020508,11.78710651397705,-1.676262378692627
1717009655495758000,18.050758056640625,10.87966537475586,8.96313190460205,-12.990272521972656
1717009655555755500,18.110755615234375,3.4307146072387695,3.467813014984131,-6.624074459075928
1717009655615753200,18.170753173828125,15.800569534301758,9.138374328613281,7.284118175506592
1717009655675750700,18.230750732421875,4.218343734741211,13.518644332885742,16.566089630126953
1717009655735748400,18.290748291015625,5.30999755859375,1.821943759918213,11.113198280334473
1717009655795745800,18.350745849609375,5.866133213043213,-14.011282920837402,3.7221806049346924
1717009655855774000,18.41077392578125,8.502462387084961,-21.65123748779297,0.3354368209838867
1717009655915771400,18.470771484375,-0.9022769927978516,-17.919132232666016,-5.897148132324219
1717009655975769000,18.53076904296875,-4.937744617462158,-6.993040084838867,8.12539291381836
1717009656035766800,18.590766845703126,6.094179153442383,6.665151596069336,19.992290496826172
1717009656095764200,18.65076416015625,5.680578231811523,15.867366790771484,16.18699073791504
1717009656155761700,18.71076171875,9.270320892333984,15.403976440429688,0.840731143951416
1717009656215759400,18.77075927734375,11.407081604003906,11.136735916137695,-8.575597763061523
1717009656275756800,18.8307568359375,6.032032012939453,2.0541067123413086,-5.752004146575928
1717009656335754500,18.89075439453125,2.424830675125122,-0.8962774276733398,-3.032165050506592
1717009656395752000,18.950751953125,19.686246871948242,13.10437297821045,14.319652557373047
1717009656455749600,19.01074951171875,-0.8100156784057617,9.736083984375,16.369775772094727
1717009656515747000,19.0707470703125,1.2588987350463867,-7.518494606018066,0.8271551132202148
1717009656575744500,19.13074462890625,9.65135669708252,-15.100631713867188,-3.3204102516174316
1717009656635772700,19.190772705078125,3.9780726432800293,-17.445655822753906,-4.596266269683838
1717009656695770400,19.250770263671875,2.043482542037964,-14.377795219421387,-2.3087210655212402
1717009656755768000,19.31076806640625,4.536721706390381,-2.509188652038574,12.757455825805664
1717009656815765500,19.370765625,7.337323188781738,7.884663105010986,11.916070938110352
1717009656875763000,19.430762939453125,4.983291149139404,14.51148509979248,16.184125900268555
1717009656935760600,19.4907607421875,7.082818984985352,15.078149795532227,3.599616050720215
1717009656995758000,19.550758056640625,9.686949729919434,11.540164947509766,-7.136197090148926
1717009657055755500,19.610755615234375,6.0991058349609375,10.829663276672363,-7.580259799957275
1717009657115753200,19.670753173828125,5.211660385131836,8.32413387298584,-2.9991350173950195
1717009657175750700,19.730750732421875,14.66617488861084,12.757306098937988,10.109092712402344
1717009657215756300,19.77075634765625,5.543924331665039,12.20341682434082,14.954117774963379
1717009657256314000,19.811314208984374,-2.1541244983673096,10.073659896850586,10.857648849487305
1717009657296322800,19.85132275390625,2.6979117393493652,2.0953125953674316,7.115764617919922
1717009657336300500,19.891300537109377,4.399745941162109,-7.16560173034668,-1.662280559539795
1717009657376309200,19.931309326171874,8.919591903686523,-14.195074081420898,-5.1681718826293945
1717009657416317700,19.971317626953127,7.636321067810059,-16.764968872070312,-5.262155055999756
1717009657456295700,20.011295654296877,3.113466739654541,-16.732097625732422,-7.562266826629639
1717009657496304400,20.051304443359374,-4.0755839347839355,-14.65426254272461,-7.7207207679748535
1717009657536312800,20.091312744140627,-6.105691909790039,-9.29788589477539,-5.166309356689453
1717009657576321500,20.131321533203124,9.613126754760742,5.367563247680664,17.42666244506836
1717009657616299300,20.17129931640625,-3.2187070846557617,18.616140365600586,23.21471405029297
1717009657656308000,20.211307861328127,3.3541293144226074,17.065982818603516,5.760693550109863
1717009657696316400,20.25131640625,3.765923023223877,14.431564331054688,-0.4349803924560547
1717009657736294400,20.29129443359375,-1.2732123136520386,12.148351669311523,-6.300546169281006
1717009657776303000,20.33130322265625,6.066912651062012,11.218308448791504,-10.773544311523438
1717009657816311600,20.3713115234375,3.6888372898101807,12.636651992797852,-10.733388900756836
1717009657856320300,20.4113203125,11.715246200561523,10.595779418945312,-8.889386177062988
1717009657896298200,20.45129833984375,9.889900207519531,7.286769866943359,-3.038595199584961
1717009657936306700,20.491306640625,6.904141902923584,7.501884937286377,-0.14885711669921875
1717009657976315400,20.5313154296875,12.788177490234375,9.509468078613281,12.231892585754395
1717009658016323800,20.57132373046875,4.513449192047119,11.856345176696777,16.095775604248047
1717009658056301800,20.6113017578125,-8.300094604492188,9.831292152404785,14.974563598632812
1717009658096310500,20.651310546875,-6.750613212585449,1.4212517738342285,8.396738052368164
1717009658136318200,20.691318115234374,-0.012060165405273438,-7.859952926635742,-1.2309951782226562
1717009658196896300,20.751896240234377,-1.7595475912094116,-13.335256576538086,-4.779688835144043
1717009658256894000,20.81189404296875,-3.220459461212158,-15.516443252563477,-4.106546878814697
1717009658316891400,20.871891357421877,-7.251036167144775,-12.84380054473877,-0.33634042739868164
1717009658376889000,20.93188916015625,-8.384340286254883,-8.61384391784668,3.4208197593688965
1717009658436886500,20.991886474609377,0.35044050216674805,4.535251617431641,20.31647491455078
1717009658496884200,21.05188427734375,-12.208843231201172,17.019235610961914,17.04180335998535
1717009658556881700,21.111881591796877,-1.8334355354309082,11.544118881225586,-2.9864182472229004
1717009658616879400,21.17187939453125,-3.6333565711975098,6.929257392883301,-9.32987117767334
1717009658676876800,21.231876708984377,-5.425946235656738,4.210965156555176,-8.898343086242676
1717009658736874500,21.29187451171875,-6.416023254394531,4.115074157714844,-1.9363665580749512
1717009658796872000,21.351871826171877,14.208415985107422,11.352357864379883,10.560868263244629
1717009658856869400,21.411869384765627,-5.27846622467041,10.304819107055664,15.83699893951416
1717009658916897500,21.4718974609375,-6.22236442565918,-2.372443199157715,7.123332500457764
1717009658976895000,21.53189501953125,-0.3280930519104004,-11.829325675964355,-0.6535775661468506
1717009659036892700,21.591892578125,-3.6942696571350098,-14.545186996459961,-0.9859867095947266
1717009659096890000,21.65189013671875,-2.332468271255493,-15.768653869628906,4.144879341125488
1717009659156887800,21.7118876953125,-7.094050407409668,-13.570281028747559,1.159745216369629
1717009659216885500,21.771885498046874,0.9826502799987793,-0.49902868270874023,17.192359924316406
1717009659276883000,21.831883056640624,-3.2223260402679443,15.167367935180664,24.194782257080078
1717009659336880600,21.891880615234374,-0.853510856628418,16.06548500061035,6.12634801864624
1717009659396878000,21.951878173828124,-6.7566633224487305,13.695716857910156,-4.648372173309326
1717009659456875500,22.01187548828125,-2.352759838104248,8.388540267944336,-9.83098316192627
1717009659516873200,22.071873291015624,-8.648244857788086,1.376756191253662,0.025349140167236328
1717009659576870700,22.13187060546875,5.220384120941162,2.3956704139709473,2.7871174812316895
1717009659636868400,22.191868408203124,-5.102947235107422,7.216479778289795,14.441730499267578
1717009659696896300,22.251896240234377,-8.621554374694824,1.355422019958496,3.888233184814453
1717009659756894000,22.31189404296875,-8.33272933959961,-6.862871170043945,1.8487004041671753
1717009659816891400,22.371891357421877,2.416382312774658,-12.349858283996582,1.2533469200134277
1717009659876888800,22.431888916015627,-6.946818828582764,-13.526369094848633,1.5823311805725098
1717009659936886800,22.49188671875,-8.238994598388672,-13.536052703857422,1.425036907196045
1717009659996884200,22.55188427734375,-5.1888909339904785,-5.9372711181640625,13.302971839904785
1717009660056881700,22.611881591796877,-3.7116589546203613,7.851585865020752,19.694543838500977
1717009660116879400,22.67187939453125,-1.1093297004699707,13.2623291015625,13.526453018188477
1717009660176876800,22.731876708984377,-2.2065176963806152,13.312027931213379,2.338228702545166
1717009660236874500,22.79187451171875,3.0834264755249023,13.052891731262207,-7.501913547515869
1717009660296872000,22.851871826171877,-2.0088889598846436,8.11417007446289,-10.078513145446777
1717009660356869600,22.91186962890625,-5.059826850891113,4.102084636688232,-8.038286209106445
1717009660416897500,22.9718974609375,5.472624778747559,17.66568374633789,11.688315391540527
1717009660476895000,23.03189501953125,-3.2334654331207275,13.456268310546875,19.118680953979492
1717009660536892700,23.091892578125,-5.278820514678955,-0.9436726570129395,6.1014404296875
1717009660596890000,23.15189013671875,-5.954259872436523,-12.643649101257324,-0.4318985342979431
1717009660656887800,23.2118876953125,-4.879584789276123,-18.25809097290039,4.302123546600342
1717009660716885200,23.27188525390625,-9.797591209411621,-19.196807861328125,1.099241018295288
1717009660776883000,23.331883056640624,-9.337733268737793,-13.638866424560547,3.356326103210449
1717009660836880600,23.391880615234374,2.79710054397583,7.539156436920166,26.454317092895508
1717009660896878000,23.451878173828124,5.007650375366211,17.51938247680664,20.282373428344727
1717009660956875500,23.51187548828125,0.4715919494628906,15.356361389160156,0.5087642669677734
1717009661016873200,23.571873291015624,1.5887947082519531,12.675353050231934,-7.456563949584961
1717009661076870700,23.63187060546875,1.1444997787475586,9.347959518432617,-9.5708646774292
1717009661136868400,23.691868408203124,-4.164325714111328,5.501890182495117,-6.461600303649902
1717009661196896300,23.751896240234377,10.785223007202148,16.729541778564453,13.832067489624023
1717009661256894000,23.81189404296875,-1.842797040939331,8.273624420166016,11.988176345825195
1717009661316891400,23.871891357421877,-6.007528305053711,-1.5014033317565918,2.8830995559692383
1717009661376889000,23.93188916015625,-6.253251552581787,-11.603561401367188,1.922490119934082
1717009661436886500,23.991886474609377,-6.574699401855469,-16.706979751586914,-2.12630558013916
1717009661496884200,24.05188427734375,-6.924416542053223,-17.670581817626953,-3.8086724281311035
1717009661556881700,24.111881591796877,-7.505229473114014,-13.226704597473145,5.811669826507568
1717009661616879400,24.17187939453125,4.080684661865234,2.189650535583496,22.93579864501953
1717009661676876800,24.231876708984377,25.5174560546875,11.368165016174316,17.04926300048828
1717009661736874500,24.29187451171875,6.843658924102783,12.947310447692871,4.656038284301758
1717009661796872000,24.351871826171877,9.589593887329102,7.227581977844238,-8.373367309570312
1717009661856869400,24.411869384765627,7.026732444763184,4.819512367248535,-10.97570514678955
1717009661916897500,24.4718974609375,1.9037575721740723,3.66627836227417,-7.682452201843262
1717009661976895000,24.53189501953125,8.4745454788208,9.538129806518555,0.812744140625
1717009662036892700,24.591892578125,9.67261791229248,10.878144264221191,5.346238136291504
1717009662096890000,24.65189013671875,1.6761200428009033,5.362825393676758,4.536351203918457
1717009662156887800,24.7118876953125,1.1459228992462158,-5.729987144470215,-2.6456046104431152
1717009662216885500,24.771885498046874,3.3462836742401123,-14.40817928314209,-1.3837697505950928
1717009662276883000,24.831883056640624,0.012316226959228516,-17.015979766845703,0.12717962265014648
1717009662336880600,24.891880615234374,0.13637781143188477,-15.115821838378906,-3.577287435531616
1717009662396878000,24.951878173828124,5.950185775756836,-4.759016036987305,13.385676383972168
1717009662456875500,25.01187548828125,11.673941612243652,12.240226745605469,21.5755672454834
1717009662516873200,25.071873291015624,7.995351791381836,13.592391014099121,10.461248397827148
1717009662576870700,25.13187060546875,6.792192459106445,6.553497791290283,-4.040273189544678
1717009662636868400,25.191868408203124,8.8101167678833,4.044057369232178,-9.505805015563965
1717009662696896300,25.251896240234377,5.138060569763184,1.0613808631896973,-8.331171989440918
1717009662756894000,25.31189404296875,11.796022415161133,6.758659362792969,0.6095676422119141
1717009662816891400,25.371891357421877,11.76247787475586,15.35588264465332,19.828609466552734
1717009662876888800,25.431888916015627,1.4593998193740845,2.7813568115234375,14.36837387084961
1717009662936886800,25.49188671875,3.770740270614624,-7.875435829162598,0.9723472595214844
1717009662996884200,25.55188427734375,5.913783550262451,-14.843545913696289,0.7514870762825012
1717009663056881700,25.611881591796877,0.8331127166748047,-16.931514739990234,2.4337189197540283
1717009663116879400,25.67187939453125,-0.5327963829040527,-15.165803909301758,-3.718111276626587
1717009663176876800,25.731876708984377,0.17667293548583984,-7.763223648071289,6.338164806365967
1717009663236874500,25.79187451171875,11.27505874633789,9.31679916381836,29.020858764648438
1717009663276883200,25.83188330078125,10.148785591125488,11.101165771484375,14.850397109985352
1717009663316891000,25.871890869140625,2.8156559467315674,10.399471282958984,9.665680885314941
1717009663357449500,25.912449462890624,6.396910667419434,10.442867279052734,1.2743902206420898
1717009663397458200,25.952458251953125,11.92529582977295,10.014633178710938,-6.62368631362915
1717009663437466600,25.992466552734374,14.277948379516602,7.487024307250977,-8.543681144714355
1717009663477444600,26.032444580078124,6.774858474731445,4.525398254394531,-8.070351600646973
1717009663517453300,26.072453369140625,6.172100067138672,1.119530200958252,-5.66579008102417
1717009663557461800,26.112461669921874,15.163405418395996,6.769333362579346,-1.6268572807312012
1717009663597470500,26.152470458984375,16.366764068603516,16.428619384765625,22.391677856445312
1717009663637448400,26.192448486328125,-0.8843731880187988,13.709202766418457,24.815221786499023
1717009663677457000,26.232456787109374,4.042769908905029,2.6481943130493164,10.667110443115234
1717009663717465600,26.272465576171875,10.634654998779297,-7.171864032745361,-0.5619122982025146
1717009663757443600,26.312443603515625,6.06519079208374,-11.600618362426758,-2.267082929611206
1717009663797452000,26.3524521484375,9.33242130279541,-15.327743530273438,0.20554542541503906
1717009663837460700,26.392460693359375,5.456785678863525,-16.73627471923828,1.376127004623413
1717009663877469200,26.43246923828125,-2.663780689239502,-14.580841064453125,-5.3534955978393555
1717009663917447400,26.472447509765626,0.6184697151184082,-13.118809700012207,-3.2392070293426514
1717009663957455600,26.51245556640625,2.597886562347412,-9.523820877075195,-3.685767889022827
1717009663997464300,26.55246435546875,12.383121490478516,1.4510064125061035,12.654098510742188
1717009664037442300,26.5924423828125,9.821588516235352,14.28557300567627,25.991741180419922
1717009664077451000,26.632450927734375,5.863986015319824,17.577869415283203,18.438995361328125
1717009664117459500,26.67245947265625,6.340500831604004,12.452421188354492,4.210380554199219
1717009664157468000,26.712468017578125,8.166763305664062,8.672740936279297,-5.173879146575928
1717009664197446100,26.752446044921875,8.069877624511719,7.6554274559021,-11.890222549438477
1717009664237454300,26.792454345703124,9.330591201782227,6.607327461242676,-14.199644088745117
1717009664277463000,26.832463134765625,9.786869049072266,4.2622389793396,-8.404253959655762
1717009664317471500,26.872471435546874,11.208091735839844,6.565122604370117,-1.6680874824523926
1717009664357449500,26.912449462890624,6.325613021850586,12.3233642578125,17.122840881347656
1717009664397458200,26.952458251953125,6.887903690338135,12.012716293334961,13.40106201171875
1717009664437466600,26.992466552734374,11.060832977294922,6.739480495452881,9.065288543701172
1717009664477444600,27.032444580078124,2.473454236984253,1.6958603858947754,10.878437042236328
1717009664517453300,27.072453369140625,2.631535530090332,-6.221344947814941,6.51106071472168
1717009664567624200,27.122624267578125,9.617876052856445,-14.164131164550781,0.03273487091064453
1717009664607633000,27.1626328125,1.7368052005767822,-16.840423583984375,-1.7367851734161377
1717009664667630300,27.22263037109375,0.6968505382537842,-16.617990493774414,-4.28822135925293
1717009664727628000,27.2826279296875,2.6360297203063965,-10.203739166259766,-1.7579060792922974
1717009664787625500,27.34262548828125,6.708763122558594,6.695218086242676,17.39750099182129
1717009664847623000,27.402622802734374,6.230165481567383,13.272732734680176,11.64848804473877
1717009664907620600,27.46262060546875,7.875998497009277,9.753887176513672,-1.883333683013916
1717009664967618000,27.5226181640625,6.586736679077148,10.378387451171875,-5.17474365234375
1717009665027615700,27.58261572265625,0.052613258361816406,4.979808330535889,-7.534621715545654
1717009665087643600,27.6426435546875,9.00015926361084,5.146521091461182,-2.8114962577819824
1717009665147641300,27.702641357421875,6.42544412612915,13.268592834472656,18.41382598876953
1717009665207638800,27.762638671875,4.081156253814697,2.921642303466797,9.962706565856934
1717009665267636500,27.822636474609375,5.925603866577148,-6.7086052894592285,3.6909067630767822
1717009665327634000,27.882634033203125,3.442380905151367,-12.831523895263672,2.991724967956543
1717009665387631600,27.942631591796875,0.3817305564880371,-16.523704528808594,4.313337802886963
1717009665447629000,28.002629150390625,-2.0638980865478516,-13.803451538085938,1.4725728034973145
1717009665507626800,28.062626708984375,1.3612117767333984,-8.33771800994873,6.721560478210449
1717009665567624200,28.122624267578125,9.616159439086914,9.520405769348145,24.447303771972656
1717009665627622000,28.182621826171875,7.782727241516113,10.335601806640625,12.150233268737793
1717009665687619300,28.242619384765625,4.160179615020752,7.54600715637207,3.1248278617858887
1717009665747617000,28.302616943359375,3.0637993812561035,3.582510471343994,-3.8711330890655518
1717009665807645000,28.36264501953125,0.6184340715408325,-1.3851938247680664,-6.679125785827637
1717009665867642400,28.422642333984374,1.651071548461914,-0.9981122016906738,-4.07121467590332
1717009665927640000,28.48264013671875,11.624866485595703,13.938526153564453,23.484588623046875
1717009665987637500,28.542637451171874,0.6099696755409241,2.2533531188964844,16.07579803466797
1717009666047635200,28.60263525390625,-1.3535141944885254,-9.157466888427734,5.894400119781494
1717009666107632600,28.662632568359374,2.4726943969726562,-15.93032455444336,5.355628967285156
1717009666167630300,28.72263037109375,-2.612135410308838,-16.342082977294922,3.8648793697357178
1717009666227628000,28.7826279296875,-1.8127508163452148,-13.781415939331055,4.969095706939697
1717009666287625500,28.84262548828125,0.6311966180801392,-5.839943885803223,13.327048301696777
1717009666347623000,28.902622802734374,0.8796826601028442,3.7199859619140625,24.998682022094727
1717009666407620600,28.96262060546875,6.1441497802734375,10.207311630249023,11.526436805725098
1717009666467618000,29.0226181640625,-4.403159141540527,8.874492645263672,1.9750957489013672
1717009666527615700,29.08261572265625,5.029932975769043,3.2830862998962402,-9.130051612854004
1717009666587643600,29.1426435546875,-5.6917829513549805,0.2954273223876953,-7.174142837524414
1717009666647641300,29.202641357421875,-3.1112258434295654,3.800502300262451,2.4231996536254883
1717009666707638800,29.262638671875,0.7326369285583496,14.387471199035645,17.02606201171875
1717009666767636500,29.322636474609375,-5.264111518859863,4.133622169494629,16.670164108276367
1717009666827634000,29.382634033203125,-0.18806982040405273,-4.346521377563477,5.296257019042969
1717009666887631600,29.442631591796875,-4.5834431648254395,-9.825285911560059,8.334737777709961
1717009666947629000,29.502629150390625,2.0303637981414795,-16.200742721557617,10.354198455810547
1717009667007626800,29.562626708984375,-7.043788909912109,-16.568193435668945,2.108168363571167
1717009667067624200,29.622624267578125,1.849330186843872,-10.22232437133789,9.63551139831543
1717009667127622000,29.682621826171875,-8.194129943847656,-0.07268047332763672,9.285832405090332
1717009667187619300,29.742619384765625,6.2070465087890625,10.167186737060547,16.687585830688477
1717009667247616800,29.80261669921875,-3.5061166286468506,14.518062591552734,8.584468841552734
1717009667307645000,29.86264501953125,-3.0277047157287598,8.660593032836914,-4.200228214263916
1717009667367642400,29.922642333984374,-0.7332792282104492,0.8852567672729492,-7.727810859680176
1717009667427640000,29.98264013671875,-5.659270286560059,-2.497710704803467,-3.0051426887512207
1717009667487637500,30.042637451171874,5.2195000648498535,7.3074259757995605,2.7886149883270264
1717009667547635200,30.10263525390625,-1.8145928382873535,13.173641204833984,24.383075714111328
1717009667607633000,30.1626328125,-7.089455604553223,1.9317092895507812,9.084242820739746
1717009667667630300,30.22263037109375,-1.8583190441131592,-11.02138614654541,4.424193382263184
1717009667727628000,30.2826279296875,-0.005849361419677734,-14.846677780151367,6.541630268096924
1717009667787625500,30.34262548828125,-5.069686412811279,-16.803831100463867,2.3560903072357178
1717009667847623000,30.402622802734374,-7.861759662628174,-13.671268463134766,0.7145757675170898
1717009667907620600,30.46262060546875,0.2575051784515381,-2.311232566833496,18.666635513305664
1717009667967618000,30.5226181640625,0.4971277713775635,11.864544868469238,19.78900718688965
1717009668027615700,30.58261572265625,-1.748528242111206,11.244165420532227,11.017561912536621
1717009668087643600,30.6426435546875,-0.5857553482055664,5.851447105407715,-5.232966423034668
1717009668147641300,30.702641357421875,3.1447458267211914,4.277484893798828,-7.36323356628418
1717009668207638800,30.762638671875,-6.956030368804932,-0.7052783966064453,-8.539728164672852
1717009668267636200,30.82263623046875,1.86720609664917,6.755646228790283,0.9054770469665527
1717009668327634200,30.88263427734375,4.661901950836182,14.896774291992188,23.113311767578125
1717009668387631600,30.942631591796875,-3.9037482738494873,4.084830284118652,11.690863609313965
1717009668447629000,31.002629150390625,-6.935702323913574,-5.311666488647461,8.959312438964844
1717009668507626800,31.062626708984375,0.7648539543151855,-12.149377822875977,3.4556689262390137
1717009668567624200,31.122624267578125,-3.1975977420806885,-14.603187561035156,7.4030256271362305
1717009668627622000,31.182621826171875,-5.840686798095703,-14.337583541870117,1.748931884765625
1717009668687619300,31.242619384765625,-6.177320957183838,-11.148098945617676,4.942332744598389
1717009668747617000,31.302616943359375,0.4735870361328125,1.6848344802856445,18.99298858642578
1717009668807645000,31.36264501953125,-2.859581470489502,13.494953155517578,28.908964157104492
1717009668867642400,31.422642333984374,-3.938692808151245,11.959314346313477,5.9047441482543945
1717009668927640000,31.48264013671875,6.813045501708984,10.690511703491211,-8.345706939697266
1717009668987637500,31.542637451171874,-6.075742721557617,5.6865057945251465,-5.228163242340088
1717009669047635200,31.60263525390625,-2.630220890045166,2.570072650909424,0.01971149444580078
1717009669107632600,31.662632568359374,3.7130227088928223,10.62860107421875,16.940383911132812
1717009669167630300,31.72263037109375,-2.4659810066223145,5.371983528137207,14.0133695602417
1717009669227628000,31.7826279296875,-7.101383209228516,-3.1972999572753906,4.709484100341797
1717009669287625500,31.84262548828125,-3.8665499687194824,-11.83191967010498,9.427896499633789
1717009669347623000,31.902622802734374,-5.894264221191406,-17.096059799194336,5.03455924987793
1717009669407620600,31.96262060546875,-6.430361270904541,-18.351970672607422,2.860208511352539
1717009669467618000,32.0226181640625,-6.697409629821777,-14.00507926940918,14.986532211303711
1717009669527615700,32.08261572265625,-4.259399890899658,3.9818310737609863,23.418317794799805
1717009669587643600,32.1426435546875,11.200357437133789,13.53531265258789,21.50554656982422
1717009669647905000,32.20290502929687,-0.305495023727417,19.208290100097656,4.85057258605957
1717009669687639000,32.24263916015625,9.756207466125488,20.23164176940918,-9.81549072265625
1717009669738237200,32.2932373046875,-5.805280685424805,18.230073928833008,-6.965826034545898
1717009669778215200,32.33321508789062,-0.8951597213745117,8.568501472473145,-4.168262481689453
1717009669818223600,32.3732236328125,2.4377801418304443,7.500757694244385,2.1558284759521484
1717009669858232300,32.413232421875,4.930193901062012,8.960836410522461,12.20671272277832
1717009669898210300,32.45321020507812,-3.187631130218506,5.020885944366455,9.101482391357422
1717009669938218800,32.49321875,-5.1917009353637695,-1.1125364303588867,2.238892078399658
1717009669978227500,32.5332275390625,-6.71763801574707,-6.100566864013672,1.8170063495635986
1717009670018236000,32.57323583984375,-11.683332443237305,-10.412078857421875,5.15271520614624
1717009670058214000,32.6132138671875,-3.4089324474334717,-15.883330345153809,1.1169302463531494
1717009670098222300,32.65322241210937,-4.9706621170043945,-16.902645111083984,-1.092289686203003
1717009670138231000,32.69323095703125,-6.945932388305664,-17.77215576171875,-0.2448592185974121
1717009670178209000,32.733208984375,-5.509450435638428,-16.203548431396484,2.594240188598633
1717009670218217500,32.77321752929687,-1.434255599975586,-11.373628616333008,11.439164161682129
1717009670258226200,32.81322607421875,13.479377746582031,-1.240539789199829,28.903526306152344
1717009670298235000,32.85323486328125,20.29497528076172,12.122714042663574,28.46142578125
1717009670338212600,32.89321264648437,23.00322723388672,20.805110931396484,19.07408905029297
1717009670378221300,32.93322119140625,14.417957305908203,24.144886016845703,8.329826354980469
1717009670418229800,32.97322973632812,18.063718795776367,20.383987426757812,-3.1081438064575195
1717009670458238500,33.013238525390626,15.28876781463623,17.311792373657227,-8.271707534790039
1717009670498216200,33.05321630859375,4.446245193481445,13.225379943847656,-6.798188209533691
1717009670538225000,33.09322485351562,3.6895763874053955,7.910152435302734,-1.4318838119506836
1717009670578233300,33.1332333984375,4.228175640106201,5.792901039123535,4.443943977355957
1717009670618211600,33.173211669921876,7.969860076904297,7.625298976898193,6.562448501586914
1717009670658220000,33.21321997070312,7.302456855773926,8.032188415527344,7.840173244476318
1717009670698228500,33.253228515625,2.190330982208252,2.8135414123535156,8.881549835205078
1717009670738237200,33.2932373046875,-4.381041526794434,-5.234989166259766,-0.17508745193481445
1717009670778215400,33.33321533203125,2.484825849533081,-12.136736869812012,-0.9875321388244629
1717009670818223600,33.3732236328125,6.955394744873047,-17.83006477355957,0.6365911960601807
1717009670858232300,33.413232421875,2.6429874897003174,-19.60092544555664,-2.392611503601074
1717009670898210300,33.45321020507812,-1.4834070205688477,-18.21937370300293,-2.2948195934295654
1717009670938218800,33.49321875,-2.7811994552612305,-16.406301498413086,2.5399422645568848
1717009670978227500,33.5332275390625,1.5105655193328857,-10.92409896850586,10.791776657104492
1717009671018236000,33.57323583984375,10.387035369873047,1.8695063591003418,29.564533233642578
1717009671058214000,33.6132138671875,16.12957763671875,13.896406173706055,30.697181701660156
1717009671098222300,33.65322241210937,13.132526397705078,21.18759536743164,23.70612335205078
1717009671138231000,33.69323095703125,9.88314437866211,19.860448837280273,10.306373596191406
1717009671178788900,33.73378881835937,14.01071548461914,14.706169128417969,-3.6050519943237305
1717009671218797600,33.773797607421876,16.744829177856445,12.57537841796875,-11.40017318725586
1717009671278795000,33.833794921875,10.697677612304688,5.624917030334473,-7.506484031677246
1717009671338792700,33.893792724609376,10.624687194824219,5.128274917602539,-2.6400904655456543
1717009671398790100,33.9537900390625,13.816316604614258,20.265546798706055,19.49233055114746
1717009671458787600,34.01378759765625,10.364250183105469,11.44757080078125,15.719719886779785
1717009671518785300,34.073785400390626,5.4836506843566895,-3.599307060241699,6.393251419067383
1717009671578782700,34.13378271484375,9.209989547729492,-14.947509765625,-1.9512200355529785
1717009671638780400,34.193780517578126,3.7647922039031982,-17.288482666015625,-1.3374778032302856
1717009671698777900,34.25377783203125,3.498032808303833,-15.072948455810547,-5.667348861694336
1717009671758775300,34.313775390625,3.973947048187256,-7.398184299468994,3.6574511528015137
1717009671818773000,34.37377294921875,4.070089340209961,7.440238952636719,14.278650283813477
1717009671878770700,34.433770751953126,15.528975486755371,19.277664184570312,18.835058212280273
1717009671938798600,34.49379858398437,0.8627476692199707,19.546062469482422,3.251476287841797
1717009671998796300,34.55379638671875,15.041394233703613,12.16482925415039,-11.536859512329102
1717009672058793700,34.61379370117187,10.369670867919922,7.388828754425049,-12.644201278686523
1717009672118791400,34.67379150390625,16.14946174621582,7.9465837478637695,-0.052643775939941406
1717009672178788900,34.73378881835937,12.652522087097168,16.911720275878906,19.94379997253418
1717009672238786600,34.79378662109375,6.486067771911621,8.092680931091309,8.14950942993164
1717009672298784000,34.85378393554687,3.0434772968292236,-4.445925712585449,4.76395845413208
1717009672358781400,34.91378149414062,10.796758651733398,-16.393096923828125,-1.5383317470550537
1717009672418779100,34.97377905273437,0.4385242462158203,-20.84663200378418,-2.937800407409668
1717009672478776600,35.03377661132812,-2.930830955505371,-15.756614685058594,-4.446712017059326
1717009672538774300,35.09377416992187,4.633390426635742,1.976888656616211,17.908771514892578
1717009672598772000,35.15377197265625,10.403631210327148,18.65152359008789,14.680898666381836
1717009672658769400,35.21376928710937,5.482507705688477,23.597583770751953,3.228595733642578
1717009672718797600,35.273797607421876,18.711292266845703,25.27567481994629,-12.619458198547363
1717009672778795000,35.333794921875,7.184739112854004,12.140872955322266,-3.030172348022461
1717009672838792400,35.39379248046875,15.727113723754883,5.255897521972656,-0.6706953048706055
1717009672898790100,35.4537900390625,-5.735013008117676,13.235746383666992,14.150713920593262
1717009672958787600,35.51378759765625,6.5445556640625,1.4137449264526367,-0.6891107559204102
1717009673018785300,35.573785400390626,3.297055244445801,-12.688365936279297,-4.039586544036865
1717009673078782700,35.63378271484375,9.56889533996582,-18.66817855834961,-1.532045841217041
1717009673138780400,35.693780517578126,6.665400505065918,-13.046651840209961,2.732490062713623
1717009673198777900,35.75377783203125,-7.210842609405518,-2.6650238037109375,2.492399215698242
1717009673258775300,35.813775390625,4.802489280700684,3.981459140777588,4.873455047607422
1717009673318773200,35.873773193359376,8.312962532043457,15.892341613769531,8.202132225036621
1717009673378770700,35.933770751953126,8.125598907470703,18.30748748779297,4.412376403808594
1717009673438798600,35.99379858398437,12.357282638549805,15.57272720336914,-6.338481903076172
1717009673498796300,36.05379638671875,14.095927238464355,14.38644790649414,-12.348794937133789
1717009673558793700,36.11379370117187,13.82283878326416,8.300573348999023,-6.524852275848389
1717009673618791400,36.17379150390625,17.85221290588379,13.255999565124512,2.8525657653808594
1717009673678788900,36.23378881835937,-0.6112830638885498,18.153236389160156,16.256275177001953
1717009673738786600,36.29378662109375,4.575953006744385,4.3667402267456055,4.807682037353516
1717009673798784000,36.35378393554687,7.797415256500244,-9.649998664855957,-1.314396858215332
1717009673858781400,36.41378149414062,4.890509128570557,-15.539066314697266,-5.418406009674072
1717009673918779100,36.47377905273437,-0.13299912214279175,-14.752726554870605,-7.101868152618408
1717009673978776600,36.53377661132812,-6.938689708709717,-12.70396614074707,-10.09900951385498
1717009674038774300,36.59377416992187,0.5879496335983276,-2.3168187141418457,7.583500862121582
1717009674098772000,36.65377197265625,-1.569380521774292,18.339111328125,25.106731414794922
1717009674158769400,36.71376928710937,5.724661827087402,20.418081283569336,6.865912437438965
1717009674218797600,36.773797607421876,2.2583425045013428,21.173444747924805,-6.676323890686035
1717009674278795000,36.833794921875,7.922763824462891,18.91176414489746,-13.44658374786377
1717009674338792700,36.893792724609376,7.9498796463012695,12.971057891845703,-6.977445125579834
1717009674398790100,36.9537900390625,14.982237815856934,12.842650413513184,5.225207328796387
1717009674458787600,37.01378759765625,0.40239715576171875,11.024645805358887,17.979724884033203
1717009674518785300,37.073785400390626,-1.9654664993286133,-1.3229780197143555,7.823840618133545
1717009674578782700,37.13378271484375,-3.8810105323791504,-14.929969787597656,-0.587407112121582
1717009674638780400,37.193780517578126,-0.8774747848510742,-18.20457649230957,-1.2263059616088867
1717009674698777900,37.25377783203125,-7.406439781188965,-17.69906234741211,-0.49061524868011475
1717009674758775300,37.313775390625,-12.053812026977539,-15.564607620239258,3.56034517288208
1717009674818773000,37.37377294921875,0.7589402198791504,-2.8383471965789795,26.06509780883789
1717009674878770700,37.433770751953126,4.534752368927002,13.166202545166016,32.27134323120117
1717009674938798600,37.49379858398437,-3.176839590072632,18.199071884155273,15.48006534576416
1717009674998796300,37.55379638671875,-0.6117110252380371,14.785195350646973,-5.817131996154785
1717009675058793700,37.61379370117187,1.0327000617980957,17.52862548828125,-13.107505798339844
1717009675118791400,37.67379150390625,0.5216360092163086,9.742436408996582,-6.014402866363525
1717009675178788900,37.73378881835937,-4.792928695678711,10.908266067504883,7.205804347991943
1717009675238786600,37.79378662109375,6.508863925933838,12.729031562805176,23.42828369140625
1717009675298784000,37.85378393554687,-8.701350212097168,2.599944591522217,18.565702438354492
1717009675358781400,37.91378149414062,0.06892204284667969,-12.870916366577148,5.790393352508545
1717009675418779100,37.97377905273437,-4.924200057983398,-18.607437133789062,6.837620735168457
1717009675478776600,38.03377661132812,-5.845705986022949,-20.085573196411133,4.748054504394531
1717009675538774300,38.09377416992187,-12.768054962158203,-17.45006561279297,3.3036770820617676
1717009675598772000,38.15377197265625,3.4154701232910156,-2.948007106781006,21.412818908691406
1717009675658769400,38.21376928710937,-5.427309036254883,11.934829711914062,27.349393844604492
1717009675718797600,38.273797607421876,0.34521913528442383,16.864456176757812,6.254962921142578
1717009675778795000,38.333794921875,0.7692642211914062,20.837993621826172,-2.335674285888672
1717009675838792400,38.39379248046875,-10.417264938354492,10.965449333190918,-8.350974082946777
1717009675898790100,38.4537900390625,-0.7637834548950195,4.1289520263671875,7.049376010894775
1717009675958787600,38.51378759765625,-5.582867622375488,8.363877296447754,-0.15994691848754883
1717009676018785300,38.573785400390626,4.297359943389893,13.006950378417969,24.46259307861328
1717009676078782700,38.63378271484375,-11.057064056396484,1.3811359405517578,5.70436954498291
1717009676138780400,38.693780517578126,-6.403233051300049,-12.350266456604004,4.823363304138184
1717009676198777900,38.75377783203125,-2.720597743988037,-21.796815872192383,8.700939178466797
1717009676258804000,38.81380395507812,-13.101511001586914,-20.049001693725586,-1.9629764556884766
1717009676298784000,38.85378393554687,-10.830957412719727,-19.24047088623047,2.4207053184509277
1717009676339341800,38.894341796875,0.46630144119262695,-8.677691459655762,21.199748992919922
1717009676379350500,38.9343505859375,-2.202829360961914,12.910131454467773,37.46697998046875
1717009676419328500,38.97432861328125,-2.811281681060791,19.734798431396484,23.311092376708984
1717009676459337000,39.0143369140625,-5.67744255065918,17.27774429321289,11.46926498413086
1717009676499345700,39.054345703125,-4.913444995880127,13.146017074584961,-2.5835087299346924
1717009676539323600,39.09432373046875,0.4289278984069824,12.439016342163086,-8.611227035522461
1717009676579332400,39.134332275390626,-0.14173603057861328,10.077190399169922,-7.700141429901123
1717009676619340500,39.17434057617187,-2.7165446281433105,4.511375904083252,-6.622399806976318
1717009676659349200,39.214349365234376,-6.00508451461792,6.256809234619141,-1.8229436874389648
1717009676699327200,39.2543271484375,5.766550064086914,17.70858383178711,17.201744079589844
1717009676739336000,39.2943359375,8.092233657836914,13.26150131225586,19.917465209960938
1717009676779344400,39.334344482421876,0.7741804122924805,5.082159042358398,14.782421112060547
1717009676819322400,39.374322265625,-13.93333625793457,0.21750402450561523,11.345985412597656
1717009676859331000,39.4143310546875,-10.262006759643555,-7.2078704833984375,6.601322650909424
1717009676899339300,39.45433935546875,-2.067492961883545,-14.298715591430664,7.583410739898682
1717009676939348000,39.49434790039062,-6.057084083557129,-18.56672477722168,7.4124064445495605
1717009676979326000,39.53432592773437,-15.206771850585938,-18.80124855041504,2.8475821018218994
1717009677019334400,39.57433447265625,-16.446025848388672,-18.377775192260742,2.3314499855041504
1717009677059343000,39.61434301757812,-6.627100944519043,-13.462569236755371,14.210389137268066
1717009677099351600,39.6543515625,-0.6552314758300781,1.3239264488220215,34.42073059082031
1717009677139329800,39.694329833984376,3.3262929916381836,9.928041458129883,23.598464965820312
1717009677179338200,39.73433813476562,7.0198283195495605,14.841695785522461,20.411069869995117
1717009677219346700,39.7743466796875,4.189930438995361,18.53038215637207,10.33015251159668
1717009677259325000,39.814324951171876,7.6985626220703125,19.02157974243164,-0.5575332641601562
1717009677299333400,39.85433349609375,6.391812324523926,21.331058502197266,-8.650795936584473
1717009677339341800,39.894341796875,-2.8809149265289307,17.845603942871094,-8.527261734008789
1717009677379350500,39.9343505859375,-2.831667184829712,12.019509315490723,-4.644008636474609
1717009677419328500,39.97432861328125,3.101879358291626,12.578932762145996,-0.47803783416748047
1717009677459337000,40.0143369140625,10.54858112335205,17.020280838012695,8.730018615722656
1717009677499345700,40.054345703125,1.3155555725097656,14.040215492248535,14.1905517578125
1717009677539323600,40.09432373046875,-3.8741657733917236,6.154561996459961,7.46050500869751
1717009677579332400,40.134332275390626,-7.220019817352295,-3.443756580352783,1.4099626541137695
1717009677619340500,40.17434057617187,-10.572978973388672,-10.043392181396484,0.24370622634887695
1717009677659349200,40.214349365234376,-8.274328231811523,-14.915746688842773,0.4593353271484375
1717009677699327200,40.2543271484375,-3.7408905029296875,-17.14100456237793,-3.3483128547668457
1717009677739336000,40.2943359375,-4.646095275878906,-17.503097534179688,-6.000034809112549
1717009677779344400,40.334344482421876,-3.5393056869506836,-16.31612777709961,-3.6548421382904053
1717009677819322400,40.374322265625,0.44338029623031616,-7.645327568054199,8.986692428588867
1717009677859331000,40.4143310546875,9.112682342529297,1.2868947982788086,18.7681827545166
1717009677899339300,40.45433935546875,13.502201080322266,7.123523712158203,13.746304512023926
1717009677939348000,40.49434790039062,16.575517654418945,12.242524147033691,18.907947540283203
1717009677979326000,40.53432592773437,8.432195663452148,15.66701889038086,12.184985160827637
1717009678019334400,40.57433447265625,10.804109573364258,14.601962089538574,6.242802619934082
1717009678059343000,40.61434301757812,13.17484188079834,12.88913631439209,-2.681321144104004
1717009678099351600,40.6543515625,13.671843528747559,12.03675651550293,-7.8319315910339355
1717009678139482000,40.69448217773437,7.688857555389404,9.30281925201416,-5.963442802429199
1717009678179490800,40.73449072265625,6.5227251052856445,6.17379903793335,-2.672091007232666
1717009678239488300,40.79448828125,13.216642379760742,9.98381519317627,0.06334257125854492
1717009678299486000,40.85448583984375,6.727364540100098,11.945966720581055,16.06986427307129
1717009678359483400,40.9144833984375,7.598611354827881,2.211430549621582,3.319766044616699
1717009678419480800,40.974480712890625,1.739652156829834,-11.484990119934082,1.0566096305847168
1717009678479478800,41.034478759765626,8.842269897460938,-21.624755859375,-2.531404733657837
1717009678539476200,41.094476318359376,-4.144545555114746,-16.599349975585938,-5.326060771942139
1717009678599473700,41.1544736328125,8.046504974365234,-6.6757307052612305,9.359560012817383
1717009678659471400,41.214471435546876,13.455743789672852,13.084014892578125,28.108505249023438
1717009678719468800,41.27446875,10.194435119628906,16.729360580444336,15.321361541748047
1717009678779466500,41.334466552734376,11.241175651550293,14.176423072814941,4.973456382751465
1717009678839464000,41.3944638671875,7.914388656616211,9.533205032348633,-3.9332282543182373
1717009678899492000,41.4544921875,13.115787506103516,1.8886828422546387,-8.57711410522461
1717009678959489500,41.51448950195312,9.990938186645508,-0.553138256072998,-3.5013136863708496
1717009679019487000,41.57448706054687,27.20046615600586,14.31595230102539,24.739025115966797
1717009679079485000,41.63448486328125,4.523441314697266,6.412532329559326,17.554141998291016
1717009679139482000,41.69448217773437,6.552984237670898,-6.145043849945068,-0.08175182342529297
1717009679199479800,41.75447973632812,4.850607872009277,-12.599348068237305,0.40760159492492676
1717009679259477500,41.8144775390625,5.021737098693848,-19.9071102142334,-1.9104881286621094
1717009679319475000,41.87447485351562,-7.5558977127075195,-12.667442321777344,-2.3332605361938477
1717009679379472600,41.93447265625,12.976064682006836,-5.199396133422852,1.0743255615234375
1717009679439470000,41.99446997070312,6.617342948913574,15.173046112060547,26.40373992919922
1717009679499467500,42.05446752929687,14.48638916015625,19.06259536743164,11.517484664916992
1717009679559465200,42.11446533203125,11.784529685974121,16.27989387512207,-2.96916127204895
1717009679619493000,42.1744931640625,13.178208351135254,14.258307456970215,-8.820778846740723
1717009679679490800,42.23449072265625,9.651668548583984,5.446927070617676,-5.925167560577393
1717009679739488300,42.29448828125,20.062191009521484,12.58351993560791,15.808324813842773
1717009679799486000,42.35448583984375,3.5068960189819336,16.518125534057617,20.360637664794922
1717009679859483400,42.4144833984375,4.509064674377441,1.862499713897705,7.362304210662842
1717009679919481000,42.474481201171876,9.510200500488281,-11.304250717163086,-5.539943695068359
1717009679979478500,42.534478515625,3.303823947906494,-14.752692222595215,-3.169938802719116
1717009680039476200,42.594476318359376,5.115771293640137,-13.757591247558594,-3.1905136108398438
1717009680099473700,42.6544736328125,1.3968791961669922,-8.037187576293945,-0.5562071800231934
1717009680159471400,42.714471435546876,4.212630271911621,0.7449169158935547,9.368833541870117
1717009680219468800,42.77446875,6.403114318847656,11.947864532470703,12.625981330871582
1717009680279466500,42.834466552734376,8.51984691619873,17.88779640197754,10.834568977355957
1717009680339464000,42.8944638671875,11.142597198486328,14.664016723632812,-5.094220161437988
1717009680399492000,42.9544921875,17.314878463745117,10.368460655212402,-8.740581512451172
1717009680459489500,43.01448950195312,7.766134262084961,2.637479782104492,-6.1882219314575195
1717009680519487000,43.07448706054687,13.263812065124512,10.074928283691406,-2.774740219116211
1717009680579484700,43.13448461914062,11.045682907104492,14.682697296142578,17.714290618896484
1717009680639482400,43.194482421875,1.4636180400848389,-1.1705732345581055,7.37548828125
1717009680699479800,43.25447973632812,4.172413349151611,-10.910223960876465,-1.4692503213882446
1717009680759477500,43.3144775390625,0.5735502243041992,-15.994447708129883,1.9974350929260254
1717009680819475000,43.37447485351562,-1.8960309028625488,-17.18618392944336,0.7396806478500366
1717009680879472600,43.43447265625,2.7194583415985107,-14.666793823242188,5.202671527862549
1717009680939470000,43.49446997070312,14.211631774902344,2.8732995986938477,37.64839553833008
1717009680999467500,43.55446752929687,25.613391876220703,13.269940376281738,29.440105438232422
1717009681059465200,43.61446533203125,19.960420608520508,7.160865783691406,1.7671079635620117
1717009681119493000,43.6744931640625,13.018009185791016,5.598020553588867,-3.587996482849121
1717009681179490800,43.73449072265625,5.417928695678711,6.166266441345215,-10.582959175109863
1717009681239488300,43.79448828125,2.586291790008545,2.6103076934814453,-2.302046775817871
1717009681299486000,43.85448583984375,19.021221160888672,5.722424507141113,14.487874984741211
1717009681359483400,43.9144833984375,10.209863662719727,7.267293930053711,19.032968521118164
1717009681419480800,43.974480712890625,3.7567076683044434,-2.209878921508789,15.370157241821289
1717009681479478800,44.034478759765626,-0.16212701797485352,-7.826925754547119,7.002388954162598
1717009681539476200,44.094476318359376,7.105714321136475,-13.776444435119629,7.648588180541992
1717009681599473700,44.1544736328125,2.6122751235961914,-15.769731521606445,5.314600467681885
1717009681659471400,44.214471435546876,0.5524482727050781,-14.263033866882324,8.099783897399902
1717009681719468800,44.27446875,19.786609649658203,4.600658416748047,45.42774963378906
1717009681779466500,44.334466552734376,7.136289596557617,12.022269248962402,30.799169540405273
1717009681839464000,44.3944638671875,7.097719192504883,4.101715087890625,3.9285738468170166
1717009681899492000,44.4544921875,6.891103744506836,3.8407278060913086,-5.356899738311768
1717009681959489500,44.51448950195312,-14.716943740844727,-1.185312271118164,-13.337831497192383
1717009682019487000,44.57448706054687,6.491026878356934,5.593550682067871,5.703444480895996
1717009682079485000,44.63448486328125,9.119935989379883,17.197296142578125,24.232128143310547
1717009682139482000,44.69448217773437,-1.1482348442077637,7.841951370239258,22.780405044555664
1717009682199860500,44.75486059570313,-6.828207492828369,-3.01077938079834,11.646814346313477
1717009682259858000,44.81485791015625,0.503054678440094,-10.738212585449219,10.565653800964355
1717009682319855600,44.87485571289063,1.7028286457061768,-17.170419692993164,13.28204345703125
1717009682379853000,44.93485302734375,-4.68302583694458,-18.040626525878906,9.575104713439941
1717009682439850500,44.9948505859375,-6.481472015380859,-9.733919143676758,18.659374237060547
1717009682499848200,45.05484814453125,8.1574125289917,5.429869651794434,23.67926025390625
1717009682559845600,45.114845703125,5.071592330932617,16.011789321899414,29.094646453857422
1717009682619873800,45.174873779296874,-2.234513998031616,12.86020565032959,6.09358024597168
1717009682679871200,45.234871337890624,-3.1668636798858643,10.152959823608398,-4.389019012451172
1717009682739869000,45.294868896484374,1.6520662307739258,4.6726393699646,2.81230092048645
1717009682799866400,45.354866455078124,-15.919828414916992,-4.869475364685059,8.812450408935547
1717009682859863800,45.41486376953125,1.635469913482666,0.7464923858642578,0.8224824666976929
1717009682919861800,45.47486181640625,-0.40692782402038574,9.137417793273926,22.265853881835938
1717009682979859000,45.53485888671875,-10.242368698120117,1.5860953330993652,5.264369010925293
1717009683039857000,45.59485693359375,2.6462154388427734,-10.188848495483398,4.741727828979492
1717009683099854300,45.654854248046874,0.12043489515781403,-14.885885238647461,9.210702896118164
1717009683159851800,45.714851806640624,-1.6906237602233887,-16.008087158203125,5.955686092376709
1717009683219849500,45.774849365234374,-4.500725746154785,-13.95827579498291,12.059836387634277
1717009683259858000,45.81485791015625,8.155401229858398,-3.0480570793151855,37.62117004394531
1717009683299865600,45.85486547851563,-6.8947625160217285,6.631289482116699,31.279285430908203
1717009683340424400,45.89542456054688,0.8324732780456543,10.931183815002441,23.78458023071289
1717009683380433000,45.935432861328124,-3.421299457550049,13.301398277282715,13.268970489501953
1717009683420441300,45.97544140625,-4.302298069000244,12.312156677246094,-0.48960018157958984
1717009683460419600,46.01541967773438,2.3672099113464355,12.300540924072266,-7.612166881561279
1717009683500428000,46.055427978515624,-2.2859420776367188,8.22402572631836,-7.180665969848633
1717009683540436500,46.0954365234375,-1.8585481643676758,0.39719104766845703,-4.9548468589782715
1717009683580445200,46.135445068359374,0.5026435852050781,1.0823383331298828,2.2751855850219727
1717009683620423200,46.175423095703124,10.02791976928711,14.314482688903809,21.009769439697266
1717009683660431600,46.215431640625,-1.870853304862976,13.402188301086426,31.658437728881836
1717009683700440000,46.255440185546874,3.0553863048553467,0.9365148544311523,19.8150691986084
1717009683740418300,46.295418212890624,3.6305935382843018,-4.727112770080566,7.067144870758057
1717009683780426800,46.3354267578125,-4.441624641418457,-8.47292709350586,10.260625839233398
1717009683820435200,46.375435302734374,-2.2963011264801025,-14.674163818359375,16.119277954101562
1717009683860444000,46.41544384765625,4.415694713592529,-19.576539993286133,14.772876739501953
1717009683900422000,46.455421875,-5.0864691734313965,-17.597919464111328,9.148098945617676
1717009683940430300,46.495430419921874,-7.306312561035156,-16.883377075195312,8.701766967773438
1717009683980439000,46.53543896484375,-1.1571681499481201,-16.299789428710938,12.15574836730957
1717009684020417000,46.5754169921875,5.268826007843018,-5.0902838706970215,32.388885498046875
1717009684060425500,46.615425537109374,2.152204990386963,7.317304611206055,31.024124145507812
1717009684100434200,46.65543408203125,8.203958511352539,13.475959777832031,28.41929817199707
1717009684140442600,46.695442626953124,0.3127260208129883,15.151040077209473,14.314807891845703
1717009684180420900,46.7354208984375,1.5645904541015625,11.771452903747559,2.843733787536621
1717009684220429000,46.77542895507813,2.656723976135254,8.73206901550293,-7.447088718414307
1717009684260437800,46.815437744140624,-0.9643082618713379,7.679791450500488,-7.4648823738098145
1717009684300415700,46.855415771484374,-7.515802383422852,3.4522347450256348,-3.3098363876342773
1717009684340424400,46.89542456054688,-6.53585958480835,0.991823673248291,0.8877623081207275
1717009684380433000,46.935432861328124,2.1890745162963867,7.7267069816589355,7.635215759277344
1717009684420441300,46.97544140625,8.126468658447266,13.962738037109375,26.73615264892578
1717009684460419600,47.01541967773438,0.05478191375732422,8.268464088439941,23.024547576904297
1717009684500428000,47.055427978515624,-4.38297176361084,-0.6542816162109375,15.511968612670898
1717009684540436500,47.0954365234375,-10.44556999206543,-7.129985332489014,15.130620956420898
1717009684580445200,47.135445068359374,-1.1058697700500488,-16.41045379638672,13.15163803100586
1717009684620423200,47.175423095703124,-4.8833327293396,-19.998090744018555,9.546954154968262
1717009684660431600,47.215431640625,-11.511733055114746,-19.697433471679688,4.4305901527404785
1717009684700440000,47.255440185546874,-5.324798107147217,-19.311519622802734,9.656570434570312
1717009684740418300,47.295418212890624,-7.093313217163086,-14.814539909362793,19.872209548950195
1717009684780426800,47.3354267578125,-6.489885330200195,-10.201210021972656,27.186233520507812
1717009684820435200,47.375435302734374,9.912820816040039,-1.8613929748535156,32.75110626220703
1717009684860444000,47.41544384765625,9.485387802124023,9.444052696228027,26.312774658203125
1717009684900422000,47.455421875,4.372653484344482,16.244611740112305,18.5928897857666
1717009684940430300,47.495430419921874,3.9673423767089844,18.07977294921875,6.470465660095215
1717009684980439000,47.53543896484375,6.892709732055664,18.78923225402832,-6.470407485961914
1717009685020417000,47.5754169921875,2.578644275665283,18.351598739624023,-10.624637603759766
1717009685060425500,47.615425537109374,-1.7619686126708984,14.45038890838623,-7.694692611694336
1717009685100434200,47.65543408203125,-2.7071094512939453,12.006521224975586,-2.2421646118164062
1717009685140442600,47.695442626953124,-2.4801762104034424,13.131338119506836,4.003503799438477
1717009685180420900,47.7354208984375,5.608875751495361,16.641536712646484,16.07337188720703
1717009685220429000,47.77542895507813,-5.171361923217773,10.384559631347656,16.439376831054688
1717009685260437800,47.815437744140624,-12.006229400634766,2.2174267768859863,8.282482147216797
1717009685300415700,47.855415771484374,-9.0449800491333,-7.638359069824219,4.393652439117432
1717009685340424400,47.89542456054688,-9.7907075881958,-13.774833679199219,-0.27815961837768555
1717009685380433000,47.935432861328124,-8.67477035522461,-18.86668586730957,-0.05771470069885254
1717009685420441300,47.97544140625,-11.510878562927246,-21.45998191833496,-3.0740950107574463
1717009685460419600,48.01541967773438,-7.359099388122559,-23.300399780273438,-2.3227951526641846
1717009685500428000,48.055427978515624,-0.6270124912261963,-20.326595306396484,4.996779441833496
1717009685540436500,48.0954365234375,7.637250900268555,-6.766656875610352,19.763864517211914
1717009685580445200,48.135445068359374,4.355855464935303,9.261431694030762,35.57860565185547
1717009685620423200,48.175423095703124,22.58661651611328,14.007246971130371,23.19585609436035
1717009685660431600,48.215431640625,21.580385208129883,20.603870391845703,15.381951332092285
1717009685700440000,48.255440185546874,11.964263916015625,21.45771026611328,6.900387763977051
1717009685740418300,48.295418212890624,13.487661361694336,19.378652572631836,-3.1031785011291504
1717009685780579300,48.335579345703124,13.718057632446289,18.689910888671875,-7.3524346351623535
1717009685840576800,48.39557666015625,2.726992607116699,13.955912590026855,-4.222947120666504
1717009685900574500,48.455574462890624,6.095956802368164,9.077313423156738,1.7989768981933594
1717009685960572200,48.515572265625,9.070930480957031,5.3107781410217285,4.343753814697266
1717009686020569300,48.5755693359375,7.4518537521362305,4.659850120544434,4.440323829650879
1717009686080567300,48.6355673828125,-4.503669738769531,0.9165644645690918,-0.907588005065918
1717009686140564700,48.695564697265624,-1.8298897743225098,-7.264010429382324,-6.368348121643066
1717009686200562400,48.7555625,4.277057647705078,-13.428915977478027,-8.30716323852539
1717009686260560000,48.815559814453124,4.414806365966797,-15.386180877685547,0.6112542152404785
1717009686320588000,48.87558813476563,-0.9987068176269531,-6.849102020263672,3.6088485717773438
1717009686380585500,48.93558544921875,-0.12778377532958984,3.046283721923828,11.358280181884766
1717009686440583000,48.9955830078125,26.913867950439453,15.688970565795898,22.722017288208008
1717009686500580600,49.05558056640625,-0.6475229263305664,22.967008590698242,13.128164291381836
1717009686560578000,49.115578125,12.657169342041016,19.025800704956055,-3.524966239929199
1717009686620575700,49.17557568359375,9.461577415466309,11.860053062438965,-6.898594379425049
1717009686680573400,49.23557348632813,7.313032150268555,4.418160438537598,-4.232483863830566
1717009686740570600,49.29557055664063,9.468725204467773,5.590135097503662,-3.0860490798950195
1717009686800568600,49.35556860351563,14.542539596557617,16.923940658569336,20.632347106933594
1717009686860566000,49.41556591796875,4.845691204071045,8.084861755371094,6.667049884796143
1717009686920563500,49.4755634765625,5.052769184112549,-7.217829704284668,-0.21491384506225586
1717009686980561200,49.53556103515625,7.155071258544922,-17.05364990234375,-4.9088215827941895
1717009687040589000,49.595589111328124,2.7276976108551025,-15.989524841308594,-10.493654251098633
1717009687100586800,49.655586669921874,0.6848866939544678,-12.5378999710083,-5.934439182281494
1717009687160584200,49.715584228515624,4.987405776977539,3.3885746002197266,19.423778533935547
1717009687220582000,49.775581787109374,4.266716480255127,14.260244369506836,16.26052474975586
1717009687280579300,49.835579345703124,8.210037231445312,16.208105087280273,7.477715492248535
1717009687340576800,49.89557666015625,7.1577653884887695,16.661312103271484,-3.191535472869873
1717009687400574500,49.955574462890624,14.078173637390137,17.777057647705078,-12.626871109008789
1717009687460572000,50.015572021484374,9.442071914672852,9.029229164123535,-7.770883083343506
1717009687520569600,50.075569580078124,19.490604400634766,11.993903160095215,2.2498884201049805
1717009687580567300,50.1355673828125,2.436979293823242,18.57736587524414,26.148136138916016
1717009687640564700,50.195564697265624,2.48185658454895,1.1272797584533691,4.464311599731445
1717009687700562400,50.2555625,0.7117717266082764,-11.811729431152344,-7.444843292236328
1717009687760559900,50.315559814453124,-0.15080833435058594,-17.434505462646484,-8.615638732910156
1717009687820588000,50.37558813476563,-0.8140203952789307,-18.463930130004883,-5.383730888366699
1717009687880585500,50.43558544921875,-2.932224988937378,-12.134437561035156,-3.479951858520508
1717009687940583000,50.4955830078125,9.810999870300293,0.41631531715393066,20.15428352355957
1717009688000580600,50.55558056640625,9.40462875366211,16.613643646240234,18.70706558227539
1717009688060578000,50.615578125,10.385683059692383,18.41147232055664,9.145255088806152
1717009688120575700,50.67557568359375,12.166014671325684,13.967331886291504,-4.136019706726074
1717009688180573200,50.7355732421875,14.79289436340332,11.277681350708008,-10.551765441894531
1717009688240571000,50.79557080078125,15.453455924987793,5.669063091278076,-9.04114055633545
1717009688300568600,50.85556860351563,15.390161514282227,10.668686866760254,-1.0979890823364258
1717009688360566000,50.91556591796875,14.554116249084473,15.241175651550293,33.496238708496094
1717009688420563500,50.9755634765625,-0.21056342124938965,-2.029386043548584,7.925941467285156
1717009688480561200,51.03556103515625,-2.209639549255371,-9.358268737792969,-10.281026840209961
1717009688540589000,51.095589111328124,2.3128859996795654,-15.313190460205078,-10.163196563720703
1717009688600586800,51.155586669921874,-6.970798492431641,-11.318242073059082,-5.816693305969238
1717009688660584200,51.215584228515624,-8.075531005859375,-7.137763023376465,-5.291061878204346
1717009688720582000,51.275581787109374,11.942858695983887,1.4606750011444092,5.347324371337891
1717009688780579300,51.335579345703124,18.369768142700195,6.259865760803223,10.943716049194336
1717009688840576800,51.39557666015625,14.071212768554688,8.795255661010742,-2.7746477127075195
1717009688900574500,51.455574462890624,15.484536170959473,11.696619033813477,-12.589729309082031
1717009688960572200,51.515572265625,13.715574264526367,12.788322448730469,-16.451847076416016
1717009689020569600,51.575569580078124,12.819612503051758,4.18462610244751,-11.599937438964844
1717009689080567300,51.6355673828125,4.15630578994751,1.9101192951202393,-2.109072685241699
1717009689140564700,51.695564697265624,16.482568740844727,2.8756134510040283,17.81096839904785
1717009689200562400,51.7555625,0.04531574249267578,3.3648130893707275,9.195545196533203
1717009689260560000,51.815559814453124,-6.551746368408203,-4.253423690795898,1.6716117858886719
1717009689320588000,51.87558813476563,-5.025399684906006,-12.242412567138672,-10.073121070861816
1717009689380585500,51.93558544921875,-8.069028854370117,-14.800056457519531,-12.987031936645508
1717009689440583000,51.9955830078125,-11.80216121673584,-13.452346801757812,-7.197841644287109
1717009689500580600,52.05558056640625,-10.011256217956543,-13.955222129821777,1.7422709465026855
1717009689560578000,52.115578125,7.877138614654541,1.7351891994476318,37.66585159301758
1717009689620575700,52.17557568359375,-1.0648303031921387,12.066812515258789,18.209672927856445
1717009689680573400,52.23557348632813,1.042954444885254,17.795310974121094,10.592523574829102
1717009689740570600,52.29557055664063,1.8317298889160156,23.889842987060547,-2.5893030166625977
1717009689800568600,52.35556860351563,0.5532951354980469,21.21156120300293,-1.9744281768798828
1717009689860566000,52.41556591796875,0.599339485168457,11.535122871398926,-4.069784164428711
1717009689920563500,52.4755634765625,32.947425842285156,14.507378578186035,19.299724578857422
1717009689980561200,52.53556103515625,-9.201151847839355,3.84074068069458,30.47399139404297
1717009690040589000,52.595589111328124,-4.087302207946777,-7.967933177947998,15.501358032226562
1717009690100586800,52.655586669921874,-3.8803651332855225,-17.295940399169922,1.3938016891479492
1717009690160584200,52.715584228515624,-8.749464988708496,-18.638290405273438,-5.485771656036377
1717009690220582000,52.775581787109374,-8.767555236816406,-18.634843826293945,-0.9212913513183594
1717009690280579300,52.835579345703124,-12.560652732849121,-18.14029884338379,-0.9695605039596558
1717009690340576800,52.89557666015625,-3.9669389724731445,-10.726811408996582,22.83241844177246
1717009690400574500,52.955574462890624,-7.050091743469238,6.194371700286865,30.559682846069336
1717009690460572000,53.015572021484374,-0.5172700881958008,13.278912544250488,20.959583282470703
1717009690520569600,53.075569580078124,-4.369109630584717,16.107690811157227,-2.142057418823242
1717009690580567300,53.1355673828125,0.6177048683166504,23.028745651245117,-7.887599468231201
1717009690640564700,53.195564697265624,-5.012450218200684,10.915671348571777,-4.481144905090332
1717009690700562400,53.2555625,6.853959560394287,9.553285598754883,9.260065078735352
1717009690760559900,53.315559814453124,-5.497524261474609,12.418540954589844,30.05452537536621
1717009690820588000,53.37558813476563,-4.999488353729248,-2.776047468185425,16.83587646484375
1717009690880585500,53.43558544921875,-10.218137741088867,-13.363422393798828,3.020735263824463
1717009690920159200,53.4751591796875,-4.190155982971191,-18.805038452148438,-1.2853326797485352
1717009690960747500,53.51574755859375,-6.643439292907715,-21.924419403076172,4.218265056610107
1717009691000756200,53.55575610351563,-8.932220458984375,-22.608427047729492,-3.3307230472564697
1717009691040734000,53.59573388671875,-8.701709747314453,-21.063589096069336,-3.5461959838867188
1717009691080742700,53.63574267578125,-11.117960929870605,-18.91236114501953,3.2004051208496094
1717009691120751000,53.67575122070313,-2.8586485385894775,-12.449665069580078,18.510744094848633
1717009691160729000,53.71572900390625,-3.79532527923584,4.145589828491211,41.06438064575195
1717009691200737800,53.75573779296875,-0.11897993087768555,10.098115921020508,28.002914428710938
1717009691240746500,53.79574658203125,-3.0593998432159424,14.609216690063477,18.400394439697266
1717009691280755000,53.8357548828125,-5.777560234069824,15.72969913482666,7.341002464294434
1717009691320733000,53.87573291015625,-3.4536964893341064,16.752302169799805,-0.32526731491088867
1717009691360741400,53.91574145507813,-4.207511901855469,16.01995086669922,-3.9363319873809814
1717009691400750000,53.95575,-7.870985984802246,8.908329010009766,-4.484048843383789
1717009691440758500,53.99575854492188,-5.225011825561523,4.174704551696777,-2.353403091430664
1717009691480736500,54.03573657226563,-7.492422103881836,5.732230186462402,5.861178874969482
1717009691520745200,54.0757451171875,1.4059133529663086,12.726200103759766,21.586502075195312
1717009691560753700,54.11575366210938,-5.9858293533325195,9.076539993286133,29.24642562866211
1717009691600731600,54.15573168945313,-10.645267486572266,0.7942924499511719,18.09153175354004
1717009691640740400,54.195740234375,-7.066703796386719,-4.750554084777832,6.320702075958252
1717009691680748800,54.23574877929688,-7.842963218688965,-11.968571662902832,6.053386688232422
1717009691720757500,54.275757568359374,-5.804455757141113,-19.23180389404297,3.6282458305358887
1717009691760735200,54.3157353515625,-11.622986793518066,-22.42205047607422,1.6420027017593384
1717009691800744000,54.35574389648438,-10.635947227478027,-22.52102279663086,-4.913023948669434
1717009691840752400,54.39575244140625,-8.206880569458008,-21.539873123168945,-0.5853763818740845
1717009691880730400,54.43573046875,-10.712947845458984,-14.058006286621094,12.112961769104004
1717009691920739000,54.47573901367188,-9.614371299743652,-0.005089759826660156,32.750240325927734
1717009691960747500,54.51574755859375,-1.407515525817871,4.246279716491699,27.597244262695312
1717009692000756200,54.55575610351563,2.528339385986328,10.653812408447266,28.21202850341797
1717009692040734000,54.59573388671875,-6.676154136657715,16.15601921081543,16.422428131103516
1717009692080742700,54.63574267578125,-5.058083534240723,16.647401809692383,7.093259334564209
1717009692151329800,54.70632983398438,2.875351905822754,19.602134704589844,-7.8508806228637695
1717009692211327200,54.7663271484375,-6.80697774887085,10.760303497314453,-5.161232948303223
1717009692271325200,54.8263251953125,1.9064221382141113,12.075240135192871,9.540331840515137
1717009692331322400,54.886322265625,-7.284231662750244,13.42520523071289,28.430437088012695
1717009692391320000,54.94632006835938,-4.025277137756348,-0.6212377548217773,15.549633026123047
1717009692451317800,55.00631787109375,-11.57783317565918,-10.54812240600586,8.4447603225708
1717009692511315200,55.06631518554688,-7.750167369842529,-21.364818572998047,-0.4253650903701782
1717009692571313000,55.12631298828125,-10.389829635620117,-23.316011428833008,-4.210821628570557
1717009692631310300,55.18631030273438,-10.541595458984375,-19.252477645874023,2.3044211864471436
1717009692691307800,55.24630786132813,-6.802176475524902,-8.688515663146973,25.432409286499023
1717009692751305500,55.30630541992188,-1.6276583671569824,5.604900360107422,24.430992126464844
1717009692811303000,55.36630297851563,-5.528205871582031,16.630830764770508,21.40570068359375
1717009692871331000,55.4263310546875,1.6864290237426758,18.96171760559082,1.0716757774353027
1717009692931328500,55.48632861328125,-2.864316940307617,24.246341705322266,-6.128981113433838
1717009692991326200,55.546326171875,-1.5548155307769775,12.132891654968262,-1.5161046981811523
1717009693051323600,55.60632373046875,-1.1144585609436035,13.922608375549316,12.817925453186035
1717009693111321300,55.6663212890625,-3.225613594055176,9.033903121948242,22.682723999023438
1717009693171319000,55.726319091796874,-11.989775657653809,-3.7020256519317627,7.972961902618408
1717009693231316500,55.78631640625,-5.351999759674072,-14.574694633483887,-1.6784636974334717
1717009693291314000,55.84631396484375,-12.402633666992188,-17.757925033569336,-9.592951774597168
1717009693351311600,55.9063115234375,-11.71122932434082,-18.386070251464844,-7.494600772857666
1717009693411309000,55.96630908203125,-6.4689531326293945,-16.122737884521484,3.4511561393737793
1717009693471306500,56.02630639648437,6.491924285888672,2.930144786834717,30.612422943115234
1717009693531304200,56.08630419921875,9.716828346252441,13.715174674987793,19.8931884765625
1717009693591302000,56.146302001953124,3.091489553451538,20.14383316040039,10.31942081451416
1717009693651329800,56.20632983398438,12.840646743774414,22.49357795715332,1.7096209526062012
1717009693711327200,56.2663271484375,2.0439321994781494,16.459415435791016,1.678004264831543
1717009693771325000,56.32632495117188,3.408629894256592,8.334551811218262,7.090348243713379
1717009693831322600,56.38632250976563,9.54439926147461,6.924139022827148,10.71001148223877
1717009693891320000,56.44632006835938,-2.169160842895508,2.9782137870788574,5.9461774826049805
1717009693951317800,56.50631787109375,0.9022564888000488,-7.039828300476074,-8.5379638671875
1717009694011315200,56.56631518554688,7.843440055847168,-16.490121841430664,-8.875055313110352
1717009694071313000,56.62631298828125,0.7538743019104004,-17.95380210876465,-5.748210906982422
1717009694131310300,56.68631030273438,4.891937732696533,-17.10964584350586,2.712615966796875
1717009694191307800,56.74630786132813,6.5687947273254395,-6.242271423339844,20.265087127685547
1717009694251305500,56.80630541992188,9.42854118347168,1.4110848903656006,24.397823333740234
1717009694311303000,56.86630297851563,13.205130577087402,13.56997299194336,28.566463470458984
1717009694371331000,56.9263310546875,4.167158126831055,16.858474731445312,4.6014580726623535
1717009694431328500,56.98632861328125,16.768470764160156,14.457470893859863,-2.436549186706543
1717009694491326200,57.046326171875,12.145002365112305,6.473424911499023,-4.790825843811035
1717009694551324000,57.106323974609374,4.855652809143066,4.012631416320801,8.704326629638672
1717009694611321300,57.1663212890625,13.210710525512695,11.21174430847168,25.25160026550293
1717009694671319000,57.226319091796874,1.5377521514892578,2.934605598449707,19.51373291015625
1717009694731316500,57.28631640625,3.5205156803131104,-7.850472450256348,5.797145843505859
1717009694791314000,57.34631396484375,8.184059143066406,-18.097002029418945,-0.3094238340854645
1717009694851311600,57.4063115234375,2.2738289833068848,-21.58876609802246,-3.0080957412719727
1717009694911309000,57.46630908203125,2.449604034423828,-18.43826675415039,-0.11534124612808228
1717009694971306500,57.52630639648437,5.800596237182617,-12.878758430480957,14.00760269165039
1717009695031304200,57.58630419921875,12.747800827026367,0.16025114059448242,35.289737701416016
1717009695091302000,57.646302001953124,4.983641624450684,10.700803756713867,26.98035430908203
1717009695151329800,57.70632983398438,6.412549018859863,14.208468437194824,6.314314842224121
1717009695211327200,57.7663271484375,14.671602249145508,16.23392677307129,-2.080822467803955
1717009695271325200,57.8263251953125,13.507070541381836,5.457818984985352,-2.893099308013916
1717009695331322400,57.886322265625,5.087981700897217,1.8178901672363281,4.477077007293701
1717009695391320000,57.94632006835938,18.081043243408203,10.45203971862793,26.17703628540039
1717009695451317800,58.00631787109375,4.615212440490723,5.493854522705078,23.378129959106445
1717009695511315200,58.06631518554688,3.875807762145996,-7.09004020690918,12.081703186035156
1717009695571313000,58.12631298828125,18.04833984375,-22.89056968688965,-2.465965509414673
1717009695631310300,58.18631030273438,2.4324865341186523,-21.071332931518555,-8.117827415466309
1717009695691307800,58.24630786132813,0.17730140686035156,-15.683782577514648,-3.705571174621582
1717009695751305500,58.30630541992188,9.060466766357422,-9.051883697509766,18.538909912109375
1717009695811303000,58.36630297851563,6.189586639404297,7.815712928771973,26.6149959564209
1717009695871331000,58.4263310546875,6.716814994812012,14.455951690673828,21.369216918945312
1717009695931328500,58.48632861328125,8.93461799621582,16.93929100036621,4.8180623054504395
1717009695991326200,58.546326171875,13.757131576538086,16.912960052490234,-3.8004796504974365
1717009696051323600,58.60632373046875,10.60608196258545,5.750486850738525,-3.1438465118408203
1717009696111321300,58.6663212890625,16.670730590820312,7.659777641296387,10.782857894897461
1717009696171319000,58.726319091796874,4.712235450744629,15.061088562011719,33.2984504699707
1717009696231316500,58.78631640625,8.022111892700195,-2.2524056434631348,12.520079612731934
1717009696291314000,58.84631396484375,11.718355178833008,-13.205132484436035,2.017303705215454
1717009696351311600,58.9063115234375,6.256026744842529,-20.42111587524414,0.4950815439224243
1717009696411309000,58.96630908203125,2.154649257659912,-19.90361976623535,-8.541857719421387
1717009696471306800,59.026306640625,1.5127272605895996,-16.8287410736084,-1.85213303565979
1717009696531304200,59.08630419921875,11.675317764282227,-2.6847848892211914,38.22757339477539
1717009696591302000,59.146302001953124,11.580916404724121,12.918842315673828,27.101558685302734
1717009696651329800,59.20632983398438,3.8877041339874268,19.994060516357422,17.846040725708008
1717009696711327200,59.2663271484375,15.396795272827148,15.180633544921875,-2.950904369354248
1717009696771325000,59.32632495117188,3.760194778442383,13.342238426208496,-6.732853412628174
1717009696831322600,59.38632250976563,11.047327041625977,3.4453840255737305,-4.838639736175537
1717009696891320000,59.44632006835938,15.500801086425781,11.320561408996582,18.199312210083008
1717009696951317800,59.50631787109375,9.385669708251953,10.741353988647461,25.26656723022461
1717009697011315200,59.56631518554688,-0.2068476676940918,-0.8742923736572266,13.87985897064209
1717009697071313000,59.62631298828125,10.84924602508545,-12.666481018066406,3.350224018096924
1717009697131310300,59.68631030273438,1.4456062316894531,-17.816925048828125,-3.3283398151397705
1717009697191307800,59.74630786132813,3.209486961364746,-19.231250762939453,-4.456306457519531
1717009697251305500,59.80630541992188,0.6726970672607422,-17.962488174438477,-0.15086138248443604
1717009697311303000,59.86630297851563,15.902746200561523,-1.0918364524841309,40.838523864746094
1717009697371331000,59.9263310546875,7.567465782165527,7.861321926116943,27.000919342041016
1717009697431328500,59.98632861328125,8.59975528717041,9.903172492980957,13.130704879760742
1717009697491326200,60.046326171875,17.747365951538086,12.345197677612305,0.3768124580383301
1717009697551324000,60.106323974609374,3.591966152191162,13.615224838256836,-4.3722405433654785
1717009697611321300,60.1663212890625,6.346024990081787,2.8742642402648926,3.3143410682678223
1717009697671319000,60.226319091796874,8.490975379943848,9.187929153442383,23.914669036865234
1717009697731316500,60.28631640625,-6.570624351501465,1.9472827911376953,26.746658325195312
1717009697791314000,60.34631396484375,5.0757927894592285,-11.62375259399414,8.959224700927734
1717009697851311600,60.4063115234375,4.039013385772705,-16.829078674316406,4.226032257080078
1717009697911309000,60.46630908203125,-1.349649429321289,-18.850231170654297,4.848771572113037
1717009697971306800,60.526306640625,2.6661391258239746,-19.44022560119629,2.7979843616485596
1717009698031304200,60.58630419921875,3.2022032737731934,-17.474037170410156,12.270813941955566
1717009698091302000,60.646302001953124,0.19107794761657715,-3.155488967895508,35.915260314941406
1717009698151329800,60.70632983398438,8.235644340515137,3.2381792068481445,31.97995948791504
1717009698211327200,60.7663271484375,0.21110999584197998,7.443979740142822,16.25625228881836
1717009698271325200,60.8263251953125,8.787530899047852,6.728305339813232,-2.896811008453369
1717009698331322400,60.886322265625,4.802244186401367,8.155078887939453,-4.2766218185424805
1717009698391320000,60.94632006835938,-8.38674545288086,2.5588769912719727,-1.6296873092651367
1717009698451317800,61.00631787109375,-1.4491740465164185,3.445418357849121,6.415916919708252
1717009698511315200,61.06631518554688,-16.39957046508789,7.351798057556152,33.0858039855957
1717009698571313000,61.12631298828125,0.8995606899261475,-4.194462776184082,15.347341537475586
1717009698631310300,61.18631030273438,-9.832254409790039,-10.922449111938477,7.116434574127197
1717009698691307800,61.24630786132813,-2.9575912952423096,-17.637939453125,4.486326694488525
1717009698751305500,61.30630541992188,-2.8021225929260254,-22.50838851928711,1.4655530452728271
1717009698811303000,61.36630297851563,-3.5659945011138916,-18.402244567871094,6.0075812339782715
1717009698871331000,61.4263310546875,-2.263219118118286,-15.740070343017578,17.972187042236328
1717009698931328500,61.48632861328125,-6.036863327026367,-2.7536373138427734,32.60033416748047
1717009698991326200,61.546326171875,-4.2337870597839355,4.470325946807861,28.350317001342773
1717009699051323600,61.60632373046875,-3.8219664096832275,8.285969734191895,15.459348678588867
1717009699111321300,61.6663212890625,-3.6479806900024414,12.911883354187012,2.937559127807617
1717009699171319000,61.726319091796874,2.8457751274108887,15.912503242492676,-6.0522284507751465
1717009699231316500,61.78631640625,-5.726324558258057,7.469435691833496,-4.591780662536621
1717009699291314000,61.84631396484375,-1.8283774852752686,4.429122447967529,10.588367462158203
1717009699351311600,61.9063115234375,-4.308108329772949,5.103448867797852,26.84700584411621
1717009699411309000,61.96630908203125,-8.907089233398438,-4.131046772003174,20.630722045898438
1717009699471306800,62.026306640625,-7.221820831298828,-13.670602798461914,6.005659580230713
1717009699531304200,62.08630419921875,-6.765004634857178,-20.402496337890625,3.9426093101501465
1717009699591302000,62.146302001953124,-4.899303436279297,-21.767864227294922,0.7008802890777588
1717009699651329800,62.20632983398438,-8.840006828308105,-18.678497314453125,5.340365886688232
1717009699711327200,62.2663271484375,-7.6151885986328125,-9.665740966796875,20.903156280517578
1717009699771325000,62.32632495117188,-2.4407291412353516,2.567289352416992,32.09165954589844
1717009699831322600,62.38632250976563,-2.5920016765594482,10.822259902954102,21.465248107910156
1717009699891320000,62.44632006835938,-0.8215036392211914,11.9287691116333,3.878324508666992
1717009699951317800,62.50631787109375,-1.0533323287963867,15.047001838684082,-6.098697662353516
1717009700011315200,62.56631518554688,-2.099332094192505,8.595227241516113,-7.072362422943115
1717009700071313000,62.62631298828125,-6.206566333770752,5.6602277755737305,1.349916934967041
1717009700131310300,62.68631030273438,2.839170455932617,17.09886932373047,22.926799774169922
1717009700191307800,62.74630786132813,-6.866275310516357,7.142788410186768,19.80482292175293
1717009700251305500,62.80630541992188,-9.565441131591797,-4.105471611022949,10.272871017456055
1717009700311303000,62.86630297851563,-5.6387810707092285,-17.381113052368164,5.480885028839111
1717009700371331000,62.9263310546875,-4.921838283538818,-22.110015869140625,10.669411659240723
1717009700431328500,62.98632861328125,-8.165322303771973,-19.214202880859375,4.302222728729248
1717009700491326200,63.046326171875,-9.743000030517578,-8.805562973022461,15.456252098083496
1717009700551324000,63.106323974609374,-1.1345481872558594,6.782281875610352,26.914264678955078
1717009700611321300,63.1663212890625,2.6841883659362793,14.697229385375977,22.430160522460938
1717009700671319000,63.226319091796874,-7.195046901702881,13.169866561889648,4.550617694854736
1717009700731316500,63.28631640625,1.9105749130249023,12.54129695892334,-6.089086532592773
1717009700791314000,63.34631396484375,-4.674127101898193,10.30315113067627,-7.737329483032227
1717009700851311600,63.4063115234375,-8.70319652557373,4.509622097015381,-0.595179557800293
1717009700911309000,63.46630908203125,6.969367027282715,15.000134468078613,21.024089813232422
1717009700971306800,63.526306640625,-2.408257007598877,9.176986694335938,26.11891746520996
1717009701031304200,63.58630419921875,-11.220380783081055,-5.037378311157227,13.568366050720215
1717009701091302000,63.646302001953124,-6.184750080108643,-16.46390724182129,7.0790510177612305
1717009701151329800,63.70632983398438,-10.6353759765625,-19.9107666015625,4.046969890594482
1717009701211327200,63.7663271484375,-8.624872207641602,-19.645401000976562,3.352102279663086
1717009701271325200,63.8263251953125,-7.9354424476623535,-16.86566734313965,8.936042785644531
1717009701331322600,63.88632250976563,-7.4035468101501465,0.1906723976135254,36.408164978027344
1717009701391320000,63.94632006835938,-2.6629278659820557,8.370975494384766,28.623661041259766
1717009701451317800,64.00631787109376,-8.272643089294434,14.08984375,12.63549518585205
1717009701511315200,64.06631518554687,3.167466163635254,15.972134590148926,-1.1924729347229004
1717009701571313000,64.12631298828126,-3.1103999614715576,15.436508178710938,-2.3994765281677246
1717009701631310300,64.18631030273437,-7.953881740570068,9.592188835144043,3.65177059173584
1717009701691307800,64.24630786132812,-2.557957649230957,10.505901336669922,13.95695972442627
1717009701751305500,64.30630541992187,-6.789917469024658,4.801644325256348,25.571680068969727
1717009701811303000,64.36630297851562,-14.352816581726074,-6.314925193786621,11.436722755432129
1717009701871331000,64.4263310546875,-4.99677848815918,-16.550514221191406,1.0452516078948975
1717009701931328500,64.48632861328124,-17.117290496826172,-19.149383544921875,-6.79558801651001
1717009701991326200,64.546326171875,-10.374725341796875,-22.44896697998047,-3.4984445571899414
1717009702051323600,64.60632373046874,-7.173878192901611,-22.706209182739258,6.386469841003418
1717009702111321300,64.6663212890625,2.4852004051208496,-13.407743453979492,35.929962158203125
1717009702171319000,64.72631909179688,14.153367042541504,-3.91902494430542,27.360904693603516
1717009702231316500,64.78631640625,13.436503410339355,16.255430221557617,27.715953826904297
1717009702291314000,64.84631396484374,13.503717422485352,22.830421447753906,9.480636596679688
1717009702351311600,64.9063115234375,10.668182373046875,24.495901107788086,-0.998284101486206
1717009702411309000,64.96630908203124,2.3509304523468018,19.493135452270508,4.029669284820557
1717009702471306800,65.026306640625,5.561586856842041,13.062969207763672,9.202645301818848
1717009702531304200,65.08630419921874,5.009364604949951,10.168150901794434,10.750457763671875
1717009702591302000,65.14630200195313,0.9967532157897949,6.394680023193359,13.208207130432129
1717009702651329800,65.20632983398437,-0.7779903411865234,-3.019369125366211,-2.3575000762939453
1717009702711327200,65.2663271484375,2.5872881412506104,-10.873376846313477,-11.770425796508789
1717009702771325000,65.32632495117187,2.108375310897827,-18.927988052368164,-14.50302505493164
1717009702831322600,65.38632250976562,3.465540885925293,-18.77390480041504,-2.678515911102295
1717009702891320000,65.44632006835937,0.7738943099975586,-14.462193489074707,6.84120512008667
1717009702951317800,65.50631787109376,5.339770317077637,-4.9058661460876465,34.32463073730469
1717009703011315200,65.56631518554687,13.87930679321289,1.9124749898910522,34.010040283203125
1717009703071313000,65.62631298828126,7.365746021270752,10.89375114440918,22.83734703063965
1717009703131310300,65.68631030273437,20.486480712890625,14.321776390075684,10.039163589477539
1717009703191307800,65.74630786132812,18.736835479736328,21.032798767089844,4.4319658279418945
1717009703251305500,65.80630541992187,11.824869155883789,10.295628547668457,8.567366600036621
1717009703311303000,65.86630297851562,11.603154182434082,5.814296722412109,25.617937088012695
1717009703371331000,65.9263310546875,11.611271858215332,-2.4084458351135254,39.5286865234375
1717009703431328500,65.98632861328124,1.4285163879394531,-9.45625114440918,21.56796646118164
1717009703491326200,66.046326171875,4.050638198852539,-14.727824211120605,-1.1525468826293945
1717009703551324000,66.10632397460938,6.943901062011719,-19.014421463012695,-7.866903781890869
1717009703611321300,66.1663212890625,3.5519890785217285,-19.903512954711914,-14.688604354858398
1717009703671319000,66.22631909179688,-1.795262336730957,-18.43434715270996,-8.571081161499023
1717009703731316500,66.28631640625,4.484050750732422,-10.853759765625,32.920711517333984
1717009703791314000,66.34631396484374,7.089436054229736,3.3227052688598633,34.22067642211914
1717009703851311600,66.4063115234375,11.578227043151855,12.768654823303223,22.449485778808594
1717009703911309000,66.46630908203124,8.978958129882812,22.16950798034668,8.36651611328125
1717009703971306800,66.526306640625,13.81258773803711,24.80216407775879,4.08942174911499
1717009704031304200,66.58630419921874,15.606311798095703,8.465944290161133,1.579185962677002
1717009704091302000,66.64630200195313,15.014955520629883,6.816620826721191,13.548721313476562
1717009704151329800,66.70632983398437,14.418464660644531,9.063857078552246,39.48351287841797
1717009704211337700,66.76633764648437,5.076699256896973,1.3208204507827759,17.38250160217285
1717009704271335700,66.82633569335937,7.526122570037842,-10.626093864440918,1.7550015449523926
1717009704331332900,66.88633276367187,6.670150279998779,-18.336889266967773,-5.933596134185791
1717009704391330800,66.94633081054687,-0.9593567848205566,-19.221012115478516,-9.763374328613281
1717009704451328300,67.00632836914062,-2.9593029022216797,-15.950736999511719,-11.542800903320312
1717009704511325700,67.06632568359375,8.577677726745605,-10.671813011169434,5.399606704711914
1717009704571323400,67.12632348632812,-4.9975666999816895,18.295400619506836,29.956174850463867
1717009704631320800,67.18632080078125,17.644617080688477,19.877965927124023,13.915372848510742
1717009704691318300,67.246318359375,6.547911643981934,21.16651153564453,2.225642204284668
1717009704751316000,67.30631591796875,11.409914016723633,16.576873779296875,-6.27150821685791
1717009704811313700,67.36631372070312,5.98757266998291,9.920778274536133,-8.847134590148926
1717009704871341600,67.42634155273437,13.849712371826172,7.843300819396973,-7.6980462074279785
1717009704931339000,67.48633911132812,25.53700828552246,17.61490249633789,27.51079750061035
1717009704991337000,67.5463369140625,10.492673873901367,3.0725224018096924,18.2335205078125
1717009705051334100,67.60633422851562,2.184135675430298,-7.775496959686279,-4.660419464111328
1717009705111331800,67.66633178710937,-2.802346706390381,-11.959063529968262,-11.464200019836426
1717009705171329500,67.72632958984374,-0.5688378810882568,-18.642616271972656,-16.873065948486328
1717009705231327000,67.78632690429687,-0.4249882698059082,-17.870054244995117,-9.04831600189209
1717009705291324400,67.84632446289062,-1.7000987529754639,-10.487744331359863,9.441025733947754
1717009705351322000,67.90632202148437,8.332134246826172,1.105682373046875,33.293487548828125
1717009705411319800,67.96631982421874,0.6744594573974609,15.24903678894043,30.04155921936035
1717009705471317200,68.02631713867187,4.529959678649902,20.69527244567871,16.46994972229004
1717009705531314700,68.08631469726562,11.650870323181152,23.607418060302734,0.914100170135498
1717009705591312400,68.1463125,13.960115432739258,21.394819259643555,-4.246150493621826
1717009705651340300,68.20634033203125,13.789294242858887,14.72073745727539,2.122133731842041
1717009705711337700,68.26633764648437,16.548728942871094,13.230976104736328,13.306028366088867
1717009705771335400,68.32633544921875,4.222811698913574,9.143084526062012,34.58460998535156
1717009705831333000,68.3863330078125,-3.0886664390563965,1.4421195983886719,20.112396240234375
1717009705891330800,68.44633081054687,0.8889334201812744,-9.821184158325195,2.450650215148926
1717009705951328300,68.50632836914062,-1.344529151916504,-17.262313842773438,-6.299713134765625
1717009706011325700,68.56632568359375,-6.388653755187988,-22.54490089416504,-12.267899513244629
1717009706071323400,68.62632348632812,-15.781904220581055,-17.144567489624023,-10.31414794921875
1717009706131320800,68.68632080078125,-8.696355819702148,-4.25806999206543,9.974359512329102
1717009706191318300,68.746318359375,-10.75546932220459,7.741840362548828,20.475549697875977
1717009706251316000,68.80631591796875,5.059414863586426,12.903923988342285,14.096683502197266
1717009706311313400,68.8663134765625,-1.2146406173706055,20.892309188842773,7.000908851623535
1717009706371341600,68.92634155273437,6.147917747497559,26.425487518310547,1.6485176086425781
1717009706431339000,68.98633911132812,8.966928482055664,22.534141540527344,-1.8194050788879395
1717009706491336700,69.04633666992187,4.914493560791016,14.645462036132812,2.5371551513671875
1717009706551334400,69.10633447265624,12.737577438354492,21.194734573364258,44.83647155761719
1717009706611331800,69.16633178710937,-2.598334312438965,-3.9700605869293213,28.5843448638916
1717009706671329500,69.22632958984374,-10.84710693359375,-11.94761848449707,7.395155906677246
1717009706731327000,69.28632690429687,-8.553536415100098,-18.0230712890625,1.610782504081726
1717009706791324700,69.34632470703124,-9.508968353271484,-24.393484115600586,-0.2464078664779663
