time,seconds_elapsed,z,y,x
1717011034602537500,0.093537353515625,1.7625932693481445,0.5818624496459961,-0.3483428955078125
1717011034642515700,0.133515625,-0.7515983581542969,-0.9911497831344604,1.5192126035690308
1717011034702513200,0.19351318359375,-3.007938861846924,-0.9435584545135498,0.45423078536987305
1717011034762510600,0.253510498046875,1.7402458190917969,1.9748282432556152,-4.152979850769043
1717011034822538800,0.313538818359375,0.36197376251220703,-0.9697701930999756,2.135662794113159
1717011034882536200,0.3735361328125,-1.787008285522461,-0.28263282775878906,3.9229073524475098
1717011034942534000,0.433533935546875,3.8546247482299805,-1.2325104475021362,2.7095797061920166
1717011035002531300,0.49353125,-2.3078250885009766,-0.2990295886993408,0.5600242018699646
1717011035062529000,0.553529052734375,-0.0053882598876953125,-0.6500105857849121,2.677340030670166
1717011035122526500,0.6135263671875,1.2011690139770508,0.5459866523742676,2.6637935638427734
1717011035182524000,0.67352392578125,2.647397994995117,0.21294069290161133,-1.1763057708740234
1717011035242521600,0.733521484375,-0.19957447052001953,-0.5481834411621094,0.2577641010284424
1717011035302519000,0.79351904296875,-2.238283157348633,-2.185978889465332,-0.3335988521575928
1717011035362516700,0.853516845703125,-1.6326775550842285,-3.564624309539795,-3.006202459335327
1717011035422514200,0.91351416015625,-2.9799909591674805,-5.929140090942383,-2.4749295711517334
1717011035482512000,0.973511962890625,-4.09915828704834,-5.177962303161621,-1.9108126163482666
1717011035542540000,1.0335400390625,-3.127335786819458,-5.685842990875244,1.8176937103271484
1717011035602537500,1.093537353515625,1.5420591831207275,-5.246861457824707,1.952425479888916
1717011035662535200,1.15353515625,-0.0469207763671875,-4.302350044250488,2.199954032897949
1717011035722532600,1.21353271484375,2.0838301181793213,-3.6182312965393066,5.166067123413086
1717011035782530000,1.273530029296875,3.31783390045166,-1.2464773654937744,5.059638977050781
1717011035842527700,1.33352783203125,3.9339771270751953,0.1223609447479248,4.789803504943848
1717011035902525200,1.393525146484375,3.2997548580169678,1.5163207054138184,4.737303733825684
1717011035962523000,1.45352294921875,2.742619514465332,2.881404161453247,4.620965957641602
1717011036022520300,1.513520263671875,1.1199510097503662,4.766127109527588,3.4813036918640137
1717011036082517800,1.573517822265625,1.3916009664535522,7.6372971534729,2.0264892578125
1717011036142515500,1.633515380859375,1.7560296058654785,5.2551679611206055,1.848832607269287
1717011036202513200,1.69351318359375,0.4201708436012268,4.408716678619385,4.09019660949707
1717011036262510600,1.753510498046875,0.6355927586555481,3.546158790588379,2.642764091491699
1717011036322538800,1.813538818359375,0.7280465364456177,1.5585131645202637,2.3786096572875977
1717011036382536200,1.8735361328125,0.09641432762145996,0.41237831115722656,1.7228927612304688
1717011036442534000,1.933533935546875,-0.5379661321640015,-1.2606375217437744,1.638504981994629
1717011036502531300,1.99353125,-0.6422638893127441,-3.227942705154419,1.930856704711914
1717011036562529000,2.053529052734375,1.1633977890014648,-3.0297956466674805,1.1380033493041992
1717011036622526500,2.1135263671875,0.7375552654266357,-2.022437334060669,-2.411670684814453
1717011036682524000,2.17352392578125,-1.2725296020507812,-4.322221279144287,-1.5808959007263184
1717011036742521600,2.233521484375,-0.9888427257537842,-4.79560661315918,-1.9911761283874512
1717011036802519000,2.29351904296875,0.44038522243499756,-3.239670515060425,-1.4492683410644531
1717011036862516700,2.353516845703125,-0.10374391078948975,-3.0870959758758545,-2.2460083961486816
1717011036922514400,2.413514404296875,-1.4159634113311768,-3.173261880874634,-2.7605295181274414
1717011036982511900,2.473511962890625,-1.8529725074768066,-3.571403980255127,-2.9661312103271484
1717011037042540000,2.5335400390625,-0.6003372669219971,-3.748835563659668,-0.6095695495605469
1717011037102537500,2.593537353515625,0.7125240564346313,-2.261545419692993,2.8079471588134766
1717011037162535000,2.653534912109375,0.6044996976852417,-1.4507131576538086,3.7990922927856445
1717011037222532600,2.71353271484375,1.0513994693756104,3.5984597206115723,1.981374740600586
1717011037282530000,2.773530029296875,1.320515751838684,2.633934736251831,0.7740697860717773
1717011037342527700,2.83352783203125,-0.22459810972213745,1.707273006439209,2.481241226196289
1717011037402525200,2.893525146484375,1.0970209836959839,4.3635454177856445,3.1432809829711914
1717011037462523000,2.95352294921875,0.7468719482421875,4.197531223297119,0.6581020355224609
1717011037522520300,3.013520263671875,-0.34042173624038696,3.6648528575897217,2.170933723449707
1717011037582518000,3.07351806640625,0.4109470248222351,2.8154170513153076,1.9782991409301758
1717011037642515700,3.133515625,1.673208475112915,1.028285026550293,1.4857196807861328
1717011037702513200,3.19351318359375,0.7971958518028259,-0.28081607818603516,3.077484130859375
1717011037762510600,3.253510498046875,0.1978299617767334,-0.7196512222290039,2.6767921447753906
1717011037822538800,3.313538818359375,0.03480076789855957,-1.2674133777618408,1.0740251541137695
1717011037882536200,3.3735361328125,-0.4651123285293579,-3.493900775909424,1.2959489822387695
1717011037942534000,3.433533935546875,-0.3815666437149048,-3.661849021911621,0.7623958587646484
1717011038002531300,3.49353125,-0.5412521362304688,-3.592343807220459,-0.9337215423583984
1717011038062529000,3.553529052734375,-0.4888976216316223,-4.335183143615723,-2.4801673889160156
1717011038122526500,3.6135263671875,-1.1105009317398071,-5.071181297302246,-3.4460391998291016
1717011038182524000,3.67352392578125,-0.6945054531097412,-5.387439250946045,-3.1854119300842285
1717011038242521600,3.733521484375,0.5225117206573486,-4.7985758781433105,-2.6929097175598145
1717011038302519000,3.79351904296875,0.1903151273727417,-5.249890327453613,-1.5870943069458008
1717011038362516700,3.853516845703125,-0.0010982751846313477,-3.8963186740875244,-0.27696800231933594
1717011038422514200,3.91351416015625,-0.06613922119140625,-2.665525197982788,0.1591196060180664
1717011038482512000,3.973511962890625,1.2003473043441772,-1.472846269607544,2.6266603469848633
1717011038542540000,4.0335400390625,1.9834654331207275,-0.3254363536834717,2.940347671508789
1717011038602537500,4.093537353515625,0.8455719947814941,1.8724970817565918,3.407830238342285
1717011038662535200,4.15353515625,-0.43699225783348083,3.9279112815856934,3.0418481826782227
1717011038722532600,4.21353271484375,-0.21464812755584717,5.048183441162109,2.5110321044921875
1717011038782530000,4.273530029296875,1.1472768783569336,6.030825614929199,3.3052945137023926
1717011038842527700,4.33352783203125,1.330270528793335,5.059284210205078,4.905738353729248
1717011038902525200,4.393525146484375,1.0914697647094727,4.685166358947754,3.7190017700195312
1717011038962523000,4.45352294921875,1.8701542615890503,3.0241708755493164,1.9768986701965332
1717011039022520300,4.513520263671875,1.0663485527038574,0.46416282653808594,1.4585237503051758
1717011039082517800,4.573517822265625,3.796264886856079,-0.6409444808959961,1.9752769470214844
1717011039142515500,4.633515380859375,3.4670863151550293,-0.7420122623443604,0.6778383255004883
1717011039202513200,4.69351318359375,1.3516840934753418,-0.854196310043335,0.804142951965332
1717011039262510600,4.753510498046875,1.0280067920684814,-2.2126150131225586,-0.924891471862793
1717011039322538800,4.813538818359375,3.1318159103393555,-2.813228130340576,-1.4544458389282227
1717011039382461400,4.87346142578125,1.1427150964736938,-3.406949996948242,-2.7523341178894043
1717011039422439400,4.913439453125,-0.18523788452148438,-3.6864426136016846,-3.0856223106384277
1717011039473037600,4.96403759765625,-2.0066518783569336,-3.749169111251831,-3.747036933898926
1717011039513015800,5.004015869140625,-1.2932692766189575,-4.465120315551758,-2.5488734245300293
1717011039553024300,5.044024169921875,-2.5935676097869873,-3.475508689880371,-2.0461440086364746
1717011039593033000,5.084032958984375,1.4550936222076416,-5.13985538482666,-1.6075968742370605
1717011039633011000,5.124010986328125,-2.620769500732422,-6.958873748779297,0.6625185012817383
1717011039673019400,5.164019287109375,1.2307599782943726,-3.3095335960388184,2.2548370361328125
1717011039713028000,5.204028076171875,0.48356151580810547,-0.0744333267211914,-1.5096502304077148
1717011039753036500,5.24403662109375,0.060858726501464844,0.03220510482788086,1.6328544616699219
1717011039793014500,5.2840146484375,0.1773695945739746,0.16258525848388672,4.500638008117676
1717011039833023000,5.32402294921875,1.3170939683914185,1.646768569946289,6.518190383911133
1717011039873031700,5.36403173828125,0.19157183170318604,4.839885711669922,5.21395206451416
1717011039913009700,5.404009765625,-1.2599419355392456,6.257501602172852,5.503914833068848
1717011039953018000,5.44401806640625,-2.521548271179199,5.50150728225708,5.488415718078613
1717011039993026800,5.48402685546875,-2.8730554580688477,5.142791748046875,3.3189196586608887
1717011040033035300,5.52403515625,-3.397080898284912,4.817118167877197,3.059903144836426
1717011040073013200,5.56401318359375,-1.4846748113632202,4.255613327026367,3.831357002258301
1717011040113021000,5.60402099609375,0.3783285617828369,3.273937702178955,3.9577865600585938
1717011040173599500,5.664599609375,0.568224310874939,2.0274786949157715,4.266992092132568
1717011040233597000,5.724596923828125,1.21646249294281,0.5542721748352051,3.69203519821167
1717011040293594400,5.784594482421875,1.349217414855957,-0.7050442695617676,3.566615104675293
1717011040353592000,5.844592041015625,1.027353286743164,-0.26477861404418945,2.865825653076172
1717011040413589500,5.904589599609375,3.162405014038086,-2.0670037269592285,0.4003582000732422
1717011040473587200,5.964587158203125,-0.7203419804573059,-3.8022689819335938,0.0770254135131836
1717011040533584600,6.024584716796875,1.7777882814407349,-3.399766683578491,-1.3712654113769531
1717011040593582000,6.08458203125,3.9447851181030273,-3.889786958694458,-3.542931079864502
1717011040653579800,6.144579833984375,0.27744799852371216,-4.308889865875244,-3.5043749809265137
1717011040713577200,6.2045771484375,-0.25150805711746216,-4.318549633026123,-3.618955612182617
1717011040773575000,6.264574951171875,0.5426374077796936,-4.654448986053467,-2.8666305541992188
1717011040833572400,6.324572265625,0.5454793572425842,-4.975038051605225,-1.0205860137939453
1717011040893600500,6.3846005859375,-2.3673954010009766,-5.1235857009887695,-0.010245323181152344
1717011040953598200,6.44459814453125,0.049410805106163025,-0.0762629508972168,1.147810935974121
1717011041013595600,6.504595703125,-0.8637994527816772,-0.471574068069458,1.6050739288330078
1717011041073593300,6.56459326171875,-0.005889639258384705,-0.05790138244628906,2.7090654373168945
1717011041133590800,6.6245908203125,-1.7398627996444702,1.6623525619506836,0.8379659652709961
1717011041193588200,6.684588134765625,0.058705300092697144,3.5443503856658936,3.152503490447998
1717011041253586000,6.7445859375,-1.1024463176727295,5.194643020629883,4.279690742492676
1717011041313583400,6.804583251953125,0.529718279838562,5.316779136657715,3.6515707969665527
1717011041373580800,6.864580810546875,2.6169261932373047,4.095183849334717,2.6519875526428223
1717011041433578500,6.92457861328125,3.9550135135650635,1.7852702140808105,4.278395652770996
1717011041493576200,6.984576171875,5.019611835479736,1.4746813774108887,4.121457099914551
1717011041553573600,7.04457373046875,2.670344829559326,0.06244087219238281,1.907144546508789
1717011041613571000,7.104571044921875,1.2693097591400146,-2.1225838661193848,2.2724361419677734
1717011041673599200,7.16459912109375,2.364708423614502,-2.0330827236175537,2.8628463745117188
1717011041733596700,7.2245966796875,1.2216110229492188,-3.367366075515747,1.0043601989746094
1717011041793594400,7.284594482421875,1.0368553400039673,-4.879019260406494,-0.7449264526367188
1717011041853592000,7.344592041015625,1.23054838180542,-5.609339714050293,-2.447035789489746
1717011041913589500,7.404589599609375,0.8906453251838684,-6.255838871002197,-3.908801555633545
1717011041973587200,7.464587158203125,1.2277023792266846,-6.398282051086426,-4.673428535461426
1717011042033584600,7.524584716796875,0.16503800451755524,-6.814643383026123,-3.5595173835754395
1717011042093582000,7.58458203125,-0.71930330991745,-5.8252739906311035,-1.8951034545898438
1717011042153579800,7.644579833984375,0.05941781401634216,-3.4735188484191895,-0.9859247207641602
1717011042213577200,7.7045771484375,-0.1488344669342041,-3.9491772651672363,1.4301996231079102
1717011042273575000,7.764574951171875,-0.18738019466400146,-2.014069080352783,2.7068166732788086
1717011042333572400,7.824572265625,0.00032088160514831543,0.1564333438873291,2.014719009399414
1717011042393600500,7.8846005859375,-0.3709206283092499,1.5612998008728027,3.319133758544922
1717011042453598000,7.944597900390625,-0.17413374781608582,3.601550817489624,3.965723991394043
1717011042513595600,8.004595703125,0.8195610642433167,4.306507587432861,2.2230825424194336
1717011042573593300,8.06459326171875,1.9959709644317627,3.8430402278900146,2.3501057624816895
1717011042633590800,8.1245908203125,2.481356382369995,3.9310457706451416,2.6379780769348145
1717011042693588200,8.184588134765624,2.1934354305267334,3.0788803100585938,2.980640411376953
1717011042753586000,8.2445859375,1.8531122207641602,3.7196104526519775,2.4946517944335938
1717011042813583400,8.304583251953124,1.7005770206451416,0.883150577545166,2.153428077697754
1717011042873581000,8.3645810546875,2.9257068634033203,-0.21311616897583008,4.551999092102051
1717011042933578500,8.42457861328125,4.69999885559082,-0.4906632900238037,3.6206979751586914
1717011042993576200,8.484576171875,2.2319955825805664,-2.636660099029541,1.3085556030273438
1717011043053573600,8.54457373046875,0.7702648043632507,-3.9240403175354004,-0.09260177612304688
1717011043113571000,8.604571044921874,1.0083394050598145,-4.770205974578857,-2.25447416305542
1717011043173599500,8.664599609375,0.4623825252056122,-5.927542686462402,-3.873995780944824
1717011043233597000,8.724596923828125,-1.0216552019119263,-5.679041862487793,-4.190492153167725
1717011043293594400,8.784594482421875,0.27693215012550354,-7.382993698120117,-3.44077730178833
1717011043353592000,8.844592041015625,0.15921586751937866,-4.29446268081665,-2.9590606689453125
1717011043413589500,8.904589599609375,0.30195844173431396,-4.7582550048828125,-0.9501886367797852
1717011043473587200,8.964587158203125,0.14177462458610535,-4.611177444458008,0.09844779968261719
1717011043533584600,9.024584716796875,1.2552379369735718,-2.8376896381378174,0.42777061462402344
1717011043593582000,9.08458203125,0.17520809173583984,-0.5739459991455078,1.705826759338379
1717011043653579800,9.144579833984375,0.6654881238937378,1.097433090209961,3.0897130966186523
1717011043713577200,9.2045771484375,0.5857464671134949,2.7084665298461914,3.9776363372802734
1717011043773575000,9.264574951171875,0.6082816123962402,3.0604684352874756,4.628876209259033
1717011043833572400,9.324572265625,0.5895646214485168,3.611884593963623,5.562098979949951
1717011043893600500,9.3846005859375,1.0148229598999023,4.409543991088867,5.409934043884277
1717011043953598200,9.44459814453125,1.164428472518921,3.5606648921966553,2.513347625732422
1717011044013595600,9.504595703125,2.2258899211883545,0.16042757034301758,1.9463462829589844
1717011044073593300,9.56459326171875,1.3107523918151855,-0.2823982238769531,2.7009973526000977
1717011044133590800,9.6245908203125,0.5369564294815063,-0.9315128326416016,2.3658199310302734
1717011044193588200,9.684588134765624,0.8980758190155029,-2.3594493865966797,0.5355873107910156
1717011044253586000,9.7445859375,1.7220062017440796,-3.915926933288574,0.06989860534667969
1717011044313583400,9.804583251953124,1.428910255432129,-6.0160393714904785,-2.216946601867676
1717011044373581000,9.8645810546875,-0.0653860867023468,-5.681241035461426,-3.3377766609191895
1717011044433578500,9.92457861328125,-0.3022960424423218,-6.602646827697754,-3.8775548934936523
1717011044493576200,9.984576171875,1.3020628690719604,-3.781702995300293,-4.395267963409424
1717011044553573600,10.04457373046875,-0.6962696313858032,-4.493923187255859,-3.0135302543640137
1717011044613571000,10.104571044921874,0.26165246963500977,-5.06232213973999,0.8199691772460938
1717011044673599200,10.16459912109375,0.13825225830078125,-2.2718288898468018,-1.394256591796875
1717011044733596700,10.2245966796875,-0.147718608379364,-2.4660801887512207,-1.4838905334472656
1717011044793594400,10.284594482421875,0.5603910684585571,-1.881479024887085,-0.5982255935668945
1717011044853592000,10.344592041015625,0.3641068637371063,-0.5317549705505371,0.9949026107788086
1717011044913589500,10.404589599609375,0.08295010030269623,0.6954822540283203,4.082610130310059
1717011044973587200,10.464587158203125,-0.05146482586860657,1.8697705268859863,6.536322116851807
1717011045033584600,10.524584716796875,0.6466191411018372,3.9803812503814697,5.8272905349731445
1717011045093582000,10.58458203125,1.306405782699585,5.624926567077637,2.4824390411376953
1717011045153579800,10.644579833984375,0.9499152898788452,3.1811366081237793,2.185817241668701
1717011045213577200,10.7045771484375,1.2788017988204956,1.5295510292053223,4.3263468742370605
1717011045253635300,10.74463525390625,1.2425591945648193,1.4446167945861816,4.723212242126465
1717011045293643000,10.78464306640625,0.6161217093467712,0.6382575035095215,2.913585662841797
1717011045334201900,10.825201904296875,0.34243160486221313,-0.6029882431030273,1.1891355514526367
1717011045374210000,10.8652099609375,0.21246787905693054,-1.6581485271453857,0.07213878631591797
1717011045414218800,10.90521875,0.3479045331478119,-2.4778106212615967,-0.7303009033203125
1717011045454196700,10.94519677734375,0.6158937811851501,-3.523496389389038,-1.5061149597167969
1717011045494205200,10.985205078125,0.7458732724189758,-4.5188889503479,-1.6712074279785156
1717011045534214000,11.0252138671875,0.7660107016563416,-4.907280921936035,-1.6080760955810547
1717011045574222300,11.065222412109375,0.3238964378833771,-4.274667263031006,-2.0956478118896484
1717011045614200600,11.10520068359375,0.294648140668869,-5.076926231384277,-1.9596500396728516
1717011045654209000,11.145208984375,0.6666805744171143,-4.153807163238525,-3.0997672080993652
1717011045694217500,11.185217529296875,0.9770534634590149,-1.4845824241638184,-3.8702306747436523
1717011045734195700,11.22519580078125,0.18990007042884827,-2.5649919509887695,-3.4405875205993652
1717011045774204200,11.2652041015625,0.03439444303512573,-3.929516315460205,-1.7388558387756348
1717011045814212600,11.305212646484375,0.027157485485076904,-3.5081558227539062,-0.34678173065185547
1717011045854221300,11.34522119140625,1.061813235282898,-1.7984402179718018,-1.4838581085205078
1717011045894199300,11.38519921875,1.02033269405365,-1.114666223526001,-2.0583038330078125
1717011045934208000,11.4252080078125,0.11640812456607819,-0.788123607635498,-1.4762372970581055
1717011045974216200,11.46521630859375,-0.13588906824588776,-0.5067534446716309,-0.30992794036865234
1717011046014194400,11.5051943359375,0.4561334252357483,-0.16670799255371094,1.4447612762451172
1717011046054782700,11.54578271484375,1.1347323656082153,0.508580207824707,1.7915115356445312
1717011046094791400,11.58579150390625,0.934586763381958,1.2471837997436523,2.7670888900756836
1717011046154788900,11.645788818359375,0.5261708498001099,2.129176378250122,4.886516094207764
1717011046214786300,11.705786376953125,-0.11121931672096252,2.1573610305786133,5.960524559020996
1717011046274784000,11.765783935546875,0.9584628343582153,4.13187837600708,5.201419830322266
1717011046334781400,11.825781494140625,-0.5412602424621582,4.275026321411133,1.8223638534545898
1717011046394779100,11.885779052734375,0.04851236939430237,1.7151803970336914,1.4357013702392578
1717011046454776600,11.945776611328125,0.26109129190444946,0.7250628471374512,2.9577484130859375
1717011046514774300,12.005774169921875,-0.6630547046661377,0.39298391342163086,2.6896677017211914
1717011046574771700,12.065771728515625,-0.27148061990737915,-0.7334349155426025,0.3097820281982422
1717011046634769200,12.12576904296875,-0.058768995106220245,-0.39362573623657227,-0.4671010971069336
1717011046694766800,12.185766845703125,-0.4916238486766815,-1.183718204498291,-1.1032047271728516
1717011046754764500,12.2457646484375,-0.4972808361053467,-1.890326738357544,-1.3654494285583496
1717011046814792400,12.30579248046875,-1.1673415899276733,-2.2766101360321045,-0.8085603713989258
1717011046874790100,12.3657900390625,-0.12025076150894165,-2.202111005783081,-0.7499208450317383
1717011046934787600,12.42578759765625,-0.7909148931503296,0.5378637313842773,-2.9605064392089844
1717011046994785300,12.485785400390625,0.4851888418197632,-1.8393981456756592,-0.6483850479125977
1717011047054782700,12.54578271484375,1.64573073387146,-2.757558584213257,0.2194528579711914
1717011047114780400,12.605780517578125,1.0942494869232178,-0.34460020065307617,-1.314406394958496
1717011047174777900,12.66577783203125,1.5737042427062988,0.014205455780029297,-1.147709846496582
1717011047234775300,12.725775390625,3.6334314346313477,-0.21579265594482422,-0.22803497314453125
1717011047294773000,12.78577294921875,3.7481346130371094,0.18237876892089844,0.985936164855957
1717011047354770400,12.8457705078125,3.4366650581359863,0.8323416709899902,2.6620798110961914
1717011047414768000,12.90576806640625,4.786474227905273,1.5308079719543457,5.332145690917969
1717011047474765800,12.965765869140625,4.185469150543213,4.390352249145508,5.190536975860596
1717011047534763300,13.02576318359375,1.8167917728424072,4.909584045410156,2.6313390731811523
1717011047594791400,13.08579150390625,2.3307507038116455,2.726715087890625,3.102008819580078
1717011047654788900,13.145788818359375,1.4918946027755737,2.449805974960327,7.317526340484619
1717011047714786300,13.205786376953125,1.8340175151824951,-0.044794559478759766,3.676468849182129
1717011047774784000,13.265783935546875,-0.4575812816619873,-1.2895574569702148,1.6615877151489258
1717011047834781400,13.325781494140625,0.3389946520328522,-2.464076042175293,-0.3615560531616211
1717011047894779100,13.385779052734375,0.7362602949142456,-3.259160041809082,-1.9137039184570312
1717011047954776600,13.445776611328125,-0.6176462173461914,-3.8194127082824707,-3.515697956085205
1717011048014774300,13.505774169921875,-0.5298322439193726,-4.602298259735107,-3.8052234649658203
1717011048074771700,13.565771728515625,-0.04473984241485596,-5.605447769165039,-1.7147207260131836
1717011048134769200,13.62576904296875,1.8319168090820312,-5.455286979675293,-1.8988656997680664
1717011048194766800,13.685766845703125,1.6022487878799438,-3.488952398300171,-1.7105169296264648
1717011048254764500,13.7457646484375,1.3257079124450684,-5.297301292419434,-0.1076812744140625
1717011048314792400,13.80579248046875,2.0329010486602783,-4.523597717285156,-0.49868011474609375
1717011048374790100,13.8657900390625,4.358893394470215,-3.297400712966919,-1.9566173553466797
1717011048434787600,13.92578759765625,3.6210577487945557,-2.91568660736084,-0.0277252197265625
1717011048494785300,13.985785400390625,3.1709394454956055,-1.4015085697174072,1.0861701965332031
1717011048554782700,14.04578271484375,3.2101643085479736,-0.6732261180877686,0.36322784423828125
1717011048614780400,14.105780517578125,2.5138378143310547,0.22439169883728027,2.0109424591064453
1717011048674777900,14.16577783203125,2.881467342376709,0.5551419258117676,3.150177001953125
1717011048734775300,14.225775390625,3.3578827381134033,3.311192035675049,2.965582847595215
1717011048794773000,14.28577294921875,1.2470895051956177,3.1144886016845703,-0.18606185913085938
1717011048854770400,14.3457705078125,-0.25956040620803833,0.8116536140441895,3.676835060119629
1717011048914768100,14.40576806640625,-0.5269454121589661,0.2364950180053711,4.874213218688965
1717011048974765800,14.465765869140625,-1.6800909042358398,-1.3484907150268555,1.3361749649047852
1717011049034763300,14.52576318359375,-1.576308250427246,-2.679868459701538,-0.29822444915771484
1717011049094791400,14.58579150390625,-2.1175246238708496,-3.624730110168457,-1.8007159233093262
1717011049154788900,14.645788818359375,-1.818382978439331,-4.209686279296875,-2.7067646980285645
1717011049214786300,14.705786376953125,-2.2862257957458496,-5.57541561126709,-2.477776050567627
1717011049274784000,14.765783935546875,-1.4417235851287842,-6.747152805328369,-1.4010229110717773
1717011049334781400,14.825781494140625,-0.43532705307006836,-2.879521369934082,-4.181304931640625
1717011049394779100,14.885779052734375,-2.269639015197754,-4.14436149597168,-1.0371885299682617
1717011049454776600,14.945776611328125,-1.181120753288269,-3.8946847915649414,1.209493637084961
1717011049514774300,15.005774169921875,1.5671391487121582,-1.8505258560180664,-1.7755188941955566
1717011049574771700,15.065771728515625,0.5773040652275085,-1.5457408428192139,-2.8626937866210938
1717011049634769200,15.12576904296875,-1.904759168624878,-0.7831025123596191,-0.5131425857543945
1717011049694766800,15.185766845703125,-0.48129338026046753,0.5461819171905518,1.5713443756103516
1717011049754764500,15.2457646484375,0.9137479066848755,1.0493054389953613,4.0208330154418945
1717011049814792400,15.30579248046875,0.7068674564361572,0.5399389266967773,3.9218130111694336
1717011049874790100,15.3657900390625,2.1662800312042236,2.0264906883239746,2.9605445861816406
1717011049934787600,15.42578759765625,1.1024824380874634,2.0435945987701416,0.3965177536010742
1717011049994785300,15.485785400390625,1.7413825988769531,-1.4591913223266602,0.5948610305786133
1717011050054782700,15.54578271484375,2.335104465484619,-0.7571947574615479,2.766737937927246
1717011050114780400,15.605780517578125,0.9264455437660217,-0.5169250965118408,1.2436952590942383
1717011050174777900,15.66577783203125,1.7169466018676758,-2.9122745990753174,-1.1631202697753906
1717011050234775300,15.725775390625,1.518532395362854,-3.5487618446350098,-2.2726845741271973
1717011050294773000,15.78577294921875,0.7596715688705444,-4.488590717315674,-2.7404046058654785
1717011050354770400,15.8457705078125,0.833841860294342,-4.687592029571533,-1.7812108993530273
1717011050414768000,15.90576806640625,1.8877253532409668,-5.763023376464844,-1.494058609008789
1717011050474765800,15.965765869140625,2.0117130279541016,-1.8076235055923462,-2.5957703590393066
1717011050534763300,16.02576318359375,0.8243237733840942,-3.254746675491333,-0.39911651611328125
1717011050594791400,16.08579150390625,-0.7003980875015259,-2.296278476715088,-0.5857095718383789
1717011050654788900,16.145788818359375,1.3954846858978271,-1.8296045064926147,-3.0611510276794434
1717011050714786300,16.205786376953125,0.755110502243042,-1.842463731765747,-2.421257972717285
1717011050774784000,16.265783935546875,0.09847556799650192,-1.2147927284240723,-0.5820226669311523
1717011050834781400,16.325781494140625,0.3952443599700928,-0.2052614688873291,0.9213380813598633
1717011050894779100,16.385779052734375,0.5585907697677612,0.4389512538909912,1.4798965454101562
1717011050954776600,16.445776611328125,-0.3201524317264557,0.8685092926025391,3.156278610229492
1717011051014774300,16.505774169921875,1.1482024192810059,0.01776409149169922,4.763607025146484
1717011051074771700,16.565771728515625,0.5191936492919922,3.2263216972351074,1.9878759384155273
1717011051134769200,16.62576904296875,1.627825379371643,-0.05276632308959961,0.8838491439819336
1717011051174797300,16.66579736328125,0.11765709519386292,-0.30736398696899414,1.6822137832641602
1717011051214805000,16.705804931640625,0.7334998846054077,-0.7547135353088379,2.473949432373047
1717011051255363800,16.74636376953125,0.7350378036499023,-0.872107744216919,2.370748519897461
1717011051295372300,16.786372314453125,0.16342560946941376,-1.5135798454284668,0.9996891021728516
1717011051335381000,16.826381103515626,0.5515998601913452,-2.9198222160339355,-0.4221038818359375
1717011051375358700,16.866358642578124,0.6476408839225769,-3.8541512489318848,-1.5926504135131836
1717011051415367400,16.906367431640625,0.6968722939491272,-4.419405460357666,-2.5054826736450195
1717011051455376000,16.9463759765625,0.6494756937026978,-5.432546138763428,-2.8535914421081543
1717011051495384300,16.98638427734375,-0.03800386190414429,-5.513162136077881,-2.6989707946777344
1717011051535362600,17.026362548828125,-0.015301026403903961,-5.826942443847656,-1.375147819519043
1717011051575371000,17.06637109375,0.8619184494018555,-5.147759914398193,-2.2099990844726562
1717011051615379700,17.106379638671875,2.615966320037842,-2.431781768798828,-3.0746560096740723
1717011051655357700,17.146357666015625,-0.0239589661359787,-3.7578725814819336,-1.7902069091796875
1717011051695366100,17.1863662109375,-0.7084492444992065,-4.950303554534912,-0.9772710800170898
1717011051735374800,17.226374755859375,0.359416663646698,-3.895529270172119,-0.25454139709472656
1717011051775383300,17.26638330078125,0.7424933314323425,-2.8220417499542236,-2.340029716491699
1717011051815361300,17.306361328125,0.3048012852668762,-1.9776725769042969,-2.560415267944336
1717011051855369700,17.34636962890625,-0.8250070810317993,-1.8522664308547974,-2.0592479705810547
1717011051895378400,17.38637841796875,-0.4838832914829254,-2.0394535064697266,-0.998936653137207
1717011051935356400,17.4263564453125,0.19047728180885315,-2.0370380878448486,-0.17015933990478516
1717011051975365000,17.466365234375,0.6594874262809753,-1.5462687015533447,0.5290546417236328
1717011052015373600,17.50637353515625,0.691386342048645,-0.49773263931274414,2.4162330627441406
1717011052055382300,17.54638232421875,0.5730103254318237,0.19709110260009766,3.773395538330078
1717011052095360000,17.586360107421875,-1.1795375347137451,0.9151997566223145,3.260087013244629
1717011052135368700,17.62636865234375,-0.25579774379730225,0.48090553283691406,2.2430381774902344
1717011052175377200,17.666377197265625,1.4448802471160889,1.4958012104034424,0.9374885559082031
1717011052215355100,17.706355224609375,0.5091237425804138,3.192295789718628,0.1319446563720703
1717011052255363800,17.74636376953125,1.25764799118042,1.7227671146392822,1.466329574584961
1717011052295372300,17.786372314453125,0.32650047540664673,1.0950682163238525,3.334623336791992
1717011052335381000,17.826381103515626,-0.6018559336662292,1.281484603881836,4.262153625488281
1717011052375358700,17.866358642578124,-0.8925922513008118,0.7550203800201416,3.7401676177978516
1717011052415367400,17.906367431640625,-0.5780791640281677,-0.35538625717163086,1.6060504913330078
1717011052455376000,17.9463759765625,-0.41789060831069946,-1.5481181144714355,0.3358345031738281
1717011052495384300,17.98638427734375,-1.0389260053634644,-2.238337516784668,-0.9502038955688477
1717011052535362600,18.026362548828125,-1.400983452796936,-2.6960997581481934,-2.0185275077819824
1717011052575371000,18.06637109375,-1.573331594467163,-3.3673863410949707,-2.255767822265625
1717011052615379700,18.106379638671875,-1.8318164348602295,-4.176089286804199,-1.9757018089294434
1717011052655357700,18.146357666015625,-1.6732345819473267,-4.162520408630371,-1.948422908782959
1717011052695366100,18.1863662109375,-1.882261037826538,-3.5402755737304688,-0.9718971252441406
1717011052735374800,18.226374755859375,-3.374939441680908,-4.761747360229492,-0.2979440689086914
1717011052775383300,18.26638330078125,-0.554935872554779,-3.609851837158203,-1.7678642272949219
1717011052815361300,18.306361328125,-0.10286623239517212,-1.8686344623565674,-2.6670217514038086
1717011052865654300,18.356654296875,-0.7738531827926636,-4.1201066970825195,-1.8340415954589844
1717011052905662700,18.396662841796875,-0.95750892162323,-2.5122714042663574,-0.06677436828613281
1717011052965660400,18.456660400390625,1.057962417602539,-0.2544553279876709,-2.2297897338867188
1717011053025657900,18.516657958984375,1.5067683458328247,0.2617053985595703,-1.1846094131469727
1717011053085655600,18.576655517578125,1.1143527030944824,0.11136388778686523,-0.0777444839477539
1717011053145653000,18.636653076171875,2.1921026706695557,1.2351784706115723,0.8422088623046875
1717011053205650700,18.696650634765625,3.4343955516815186,2.214362382888794,4.086679458618164
1717011053265648000,18.756648193359375,0.9659267663955688,2.9337706565856934,4.660763263702393
1717011053325645800,18.816645751953125,0.4170192778110504,3.8461086750030518,4.526210308074951
1717011053385673700,18.876673828125,2.55350399017334,5.13374137878418,2.8773279190063477
1717011053445671400,18.93667138671875,2.2423784732818604,3.6901581287384033,2.291219711303711
1717011053505668900,18.9966689453125,-1.009706974029541,1.8376803398132324,4.848865985870361
1717011053565666600,19.05666650390625,0.9769359827041626,1.7828152179718018,4.258833885192871
1717011053625664000,19.1166640625,1.9264171123504639,0.4088563919067383,1.1707611083984375
1717011053685661700,19.17666162109375,-0.6628863215446472,-0.9911508560180664,-0.14728164672851562
1717011053745659100,19.2366591796875,-0.393684983253479,0.14429092407226562,-1.5043087005615234
1717011053805656600,19.296656494140624,0.4556928277015686,-1.0519506931304932,-2.5299911499023438
1717011053865654300,19.356654296875,0.3629618287086487,-1.2548103332519531,-1.4594345092773438
1717011053925651700,19.416651611328124,0.4160913825035095,-2.3090105056762695,0.6487417221069336
1717011053985649400,19.4766494140625,2.406558036804199,-0.08707690238952637,-0.9944729804992676
1717011054045646800,19.536646728515624,4.343644618988037,-0.8596768379211426,-1.6333494186401367
1717011054105675000,19.596675048828125,2.5510830879211426,-0.745631217956543,-0.041937828063964844
1717011054165672700,19.656672607421875,2.353630304336548,1.2695155143737793,-0.4293036460876465
1717011054225670100,19.716670166015625,3.255958080291748,1.1929378509521484,2.167543411254883
1717011054285667600,19.77666748046875,4.178276062011719,3.2985992431640625,3.696908950805664
1717011054345665300,19.836665283203125,3.512080192565918,3.083436965942383,2.953217029571533
1717011054405663000,19.8966630859375,2.8990848064422607,3.0531771183013916,3.6447668075561523
1717011054465660400,19.956660400390625,3.783449411392212,2.9337055683135986,4.227198123931885
1717011054525657900,20.016657958984375,3.9074575901031494,3.2328052520751953,4.124632835388184
1717011054585655600,20.076655517578125,2.9440221786499023,4.183005332946777,2.0528440475463867
1717011054645653000,20.136653076171875,3.6743812561035156,1.2604179382324219,2.7093734741210938
1717011054705650400,20.196650390625,3.7486395835876465,1.2116613388061523,4.201725482940674
1717011054765648100,20.256648193359375,4.356387138366699,1.3962178230285645,1.8878793716430664
1717011054825645800,20.316645751953125,2.9804821014404297,1.006824254989624,0.0957794189453125
1717011054885673700,20.376673828125,4.876956939697266,0.9916810989379883,0.938206672668457
1717011054945671400,20.43667138671875,2.9743359088897705,0.06370949745178223,-0.10481739044189453
1717011055005668900,20.4966689453125,2.3928608894348145,0.018860578536987305,0.7038593292236328
1717011055065666600,20.55666650390625,-0.7257239818572998,-0.5330274105072021,-0.3822355270385742
1717011055125664000,20.6166640625,-1.2891138792037964,-1.200700044631958,-0.5386343002319336
1717011055185661700,20.67666162109375,-2.7778377532958984,0.12055039405822754,-3.7686915397644043
1717011055245659100,20.7366591796875,-1.1550474166870117,-2.495319366455078,-1.9675254821777344
1717011055305656600,20.796656494140624,-0.48212379217147827,-2.0355794429779053,-2.4065589904785156
1717011055365654300,20.856654296875,-0.10435757040977478,-1.2362136840820312,-2.48270845413208
1717011055425651700,20.916651611328124,-0.3220939338207245,-1.0079712867736816,0.1118936538696289
1717011055485649400,20.9766494140625,0.9706354141235352,-0.03823375701904297,1.3326177597045898
1717011055545646800,21.036646728515624,1.504331111907959,0.9309878349304199,1.8307771682739258
1717011055605675000,21.096675048828125,1.8036515712738037,0.6865549087524414,3.9005322456359863
1717011055665672700,21.156672607421875,1.2683671712875366,1.6239118576049805,3.9888839721679688
1717011055725670100,21.216670166015625,2.679730176925659,3.3263516426086426,2.8862218856811523
1717011055785667600,21.27666748046875,1.9723083972930908,4.786377906799316,4.554239273071289
1717011055845665300,21.336665283203125,0.9940162897109985,5.830262184143066,4.942111015319824
1717011055905663000,21.3966630859375,2.113060712814331,3.654788017272949,4.952845573425293
1717011055965660400,21.456660400390625,2.957256555557251,3.240882635116577,4.690087795257568
1717011056025657900,21.516657958984375,2.3004398345947266,2.4832003116607666,2.5171117782592773
1717011056085655600,21.576655517578125,1.3804869651794434,1.4847841262817383,1.221562385559082
1717011056145653000,21.636653076171875,-0.43180763721466064,-0.23876476287841797,-0.37584781646728516
1717011056205650400,21.696650390625,0.34620529413223267,0.025505542755126953,-0.8656415939331055
1717011056265648000,21.756648193359375,-0.5310813784599304,-1.446225643157959,-0.9336051940917969
1717011056325645800,21.816645751953125,-0.49363285303115845,-2.8889834880828857,-0.35271644592285156
1717011056385673700,21.876673828125,-0.37383800745010376,-0.17755556106567383,-2.7220544815063477
1717011056445671400,21.93667138671875,0.37560704350471497,0.4754660129547119,-2.400331974029541
1717011056505668900,21.9966689453125,-0.22769612073898315,-1.2257757186889648,-0.18056392669677734
1717011056565666600,22.05666650390625,1.3672876358032227,0.11729192733764648,-0.8609442710876465
1717011056625664000,22.1166640625,1.6561142206192017,1.2551813125610352,-0.37070655822753906
1717011056685661700,22.17666162109375,0.1833411455154419,2.527357578277588,1.6876273155212402
1717011056745659100,22.2366591796875,0.2523135542869568,3.109879493713379,3.220942974090576
1717011056805656600,22.296656494140624,1.7442781925201416,3.418290615081787,5.1680169105529785
1717011056865654300,22.356654296875,0.5579781532287598,3.244633197784424,6.099964618682861
1717011056925651700,22.416651611328124,0.9784949421882629,3.951185464859009,4.870460510253906
1717011056985649400,22.4766494140625,0.6557067036628723,3.9009408950805664,3.3610754013061523
1717011057045646800,22.536646728515624,0.7253109812736511,2.6680986881256104,1.0762228965759277
1717011057105675000,22.596675048828125,0.9840881824493408,-0.2694973945617676,0.8712472915649414
1717011057165672700,22.656672607421875,0.6509960293769836,-0.004173755645751953,2.6322994232177734
1717011057225670100,22.716670166015625,0.7361425757408142,0.2722587585449219,1.3477506637573242
1717011057285667600,22.77666748046875,0.5975774526596069,-0.8501558303833008,-0.4211750030517578
1717011057345665300,22.836665283203125,-0.5361998081207275,-0.10284280776977539,-0.7408432960510254
1717011057405663000,22.8966630859375,-0.2646002173423767,-0.9346356391906738,-1.0107383728027344
1717011057465660400,22.956660400390625,0.10458558797836304,-1.534595251083374,-1.1453585624694824
1717011057525657900,23.016657958984375,-0.07189148664474487,-2.0720410346984863,-1.5338788032531738
1717011057585655600,23.076655517578125,-0.5623293519020081,-0.23261737823486328,-1.3597021102905273
1717011057645653000,23.136653076171875,0.44053688645362854,1.6969208717346191,-2.778167724609375
1717011057705650400,23.196650390625,0.5187768936157227,-0.9517002105712891,-0.29211902618408203
1717011057765648100,23.256648193359375,1.1068447828292847,-0.15777015686035156,0.7284832000732422
1717011057825645800,23.316645751953125,1.020297646522522,2.4382824897766113,1.156163215637207
1717011057885674000,23.376674072265626,-0.07500410079956055,1.2943012714385986,1.4438810348510742
1717011057945582000,23.43658203125,0.7670317888259888,1.7114624977111816,2.2761993408203125
1717011057985560000,23.47656005859375,0.7892676591873169,2.351377248764038,1.7139577865600586
1717011058036158200,23.527158203125,1.3277819156646729,2.2736756801605225,3.231667995452881
1717011058076136200,23.56713623046875,0.32460248470306396,2.851454496383667,4.355607032775879
1717011058116145000,23.607144775390626,0.3265378475189209,2.7767481803894043,5.744493007659912
1717011058156153300,23.6471533203125,-0.07405370473861694,3.502991199493408,5.254688262939453
1717011058196131600,23.687131591796874,0.0659644603729248,4.065056800842285,3.6391091346740723
1717011058236140000,23.72714013671875,0.155309796333313,4.463647365570068,1.4419584274291992
1717011058276148700,23.767148681640624,0.05326336622238159,2.3881216049194336,2.0208382606506348
1717011058316157000,23.807156982421876,1.5630629062652588,0.5269227027893066,1.9400386810302734
1717011058356135200,23.84713525390625,-0.22459083795547485,0.2566952705383301,2.695225715637207
1717011058396143600,23.8871435546875,-0.052286624908447266,-0.4098649024963379,3.7412376403808594
1717011058436152300,23.92715234375,-0.612214207649231,-1.0289952754974365,3.039719581604004
1717011058476130300,23.96713037109375,-1.3781225681304932,-1.6909375190734863,1.3128795623779297
1717011058516138800,24.007138671875,-1.3566033840179443,-2.418126106262207,-0.24723243713378906
1717011058556147500,24.0471474609375,-1.3849252462387085,-3.0284085273742676,-0.8798723220825195
1717011058596156000,24.087156005859374,-1.5990338325500488,-1.7767693996429443,-1.3966612815856934
1717011058636134000,24.1271337890625,-2.2137744426727295,-2.55415940284729,-2.225767135620117
1717011058676142300,24.167142333984376,-0.2607727646827698,-3.088341236114502,-2.3415303230285645
1717011058716151000,24.207151123046874,0.3328215181827545,-2.7550806999206543,-3.4693760871887207
1717011058756129000,24.24712890625,0.3325245678424835,-2.6679699420928955,-3.6403093338012695
1717011058796137500,24.287137451171876,0.36481767892837524,-3.340118885040283,-2.183208465576172
1717011058836146200,24.327146240234374,0.8635878562927246,-3.081993818283081,-0.9300680160522461
1717011058876154600,24.367154541015626,1.934963345527649,-2.5017948150634766,-1.1555328369140625
1717011058916132600,24.407132568359376,3.5112154483795166,-2.428022623062134,-1.783689022064209
1717011058956141300,24.447141357421874,3.9650955200195312,-2.0550928115844727,0.0651388168334961
1717011058996149800,24.487149658203126,3.6879334449768066,-2.645308494567871,1.3027715682983398
1717011059036158200,24.527158203125,5.084475517272949,-1.9904277324676514,2.89139461517334
1717011059076136200,24.56713623046875,5.886846542358398,-0.6100397109985352,2.4585323333740234
1717011059116145000,24.607144775390626,5.226212501525879,0.24190855026245117,1.1501750946044922
1717011059156153300,24.6471533203125,4.661788463592529,0.012968063354492188,1.6511497497558594
1717011059196131600,24.687131591796874,4.9036712646484375,-0.23002290725708008,1.1666841506958008
1717011059236140000,24.72714013671875,5.875365257263184,0.04506826400756836,0.7202110290527344
1717011059276148700,24.767148681640624,5.793524742126465,0.916776180267334,0.6217279434204102
1717011059316157000,24.807156982421876,5.39000129699707,1.1956274509429932,0.8380622863769531
1717011059356715000,24.847715087890624,3.537489652633667,1.0835521221160889,0.8098087310791016
1717011059396723500,24.887723388671876,1.6434428691864014,0.7723245620727539,1.0847644805908203
1717011059456721000,24.947720947265626,0.9794511795043945,0.9965794086456299,2.105672836303711
1717011059516718600,25.007718505859376,0.6181290149688721,2.2855567932128906,2.258406639099121
1717011059576716000,25.067716064453126,-1.719914197921753,1.8568964004516602,1.1509208679199219
1717011059636713700,25.127713623046876,-1.5714550018310547,-0.09329414367675781,3.197798728942871
1717011059696711200,25.187711181640626,-2.059894323348999,-0.6102354526519775,3.5829782485961914
1717011059756708900,25.247708984375,-2.833448886871338,-1.767115592956543,1.2918272018432617
1717011059816706600,25.30770654296875,-4.207082748413086,-2.9299378395080566,0.041100502014160156
1717011059876704000,25.3677041015625,-2.603261947631836,-2.0384812355041504,-0.9642133712768555
1717011059936701400,25.427701416015626,-2.883596897125244,-2.1448159217834473,-2.2798657417297363
1717011059996699100,25.48769921875,-1.8777941465377808,-2.7267446517944336,-2.3827123641967773
1717011060056696600,25.547696533203126,-0.7663018703460693,-3.1200122833251953,-2.298100471496582
1717011060116724700,25.607724853515624,-0.7707646489143372,-4.140854358673096,-0.7097549438476562
1717011060176722200,25.66772216796875,-2.560441493988037,-2.2391769886016846,-1.6798582077026367
1717011060236719900,25.727719970703124,2.637117862701416,-1.4817047119140625,-1.145742416381836
1717011060296717300,25.78771728515625,0.6904729604721069,-2.346482038497925,1.019536018371582
1717011060356715000,25.847715087890624,1.6610262393951416,0.054177284240722656,1.6429729461669922
1717011060416712700,25.907712646484374,2.9858102798461914,1.3796963691711426,0.5052661895751953
1717011060476710100,25.967710205078124,1.4920315742492676,1.736337661743164,0.8152570724487305
1717011060536707600,26.02770751953125,2.6081483364105225,3.3143222332000732,1.043588638305664
1717011060596705300,26.087705322265624,2.222951889038086,4.006509304046631,3.071371555328369
1717011060656702700,26.14770263671875,2.316157341003418,3.0975546836853027,5.629693031311035
1717011060716700400,26.207700439453124,4.027614593505859,3.9050371646881104,5.735173225402832
1717011060776697900,26.26769775390625,1.181124210357666,4.002633094787598,2.867593288421631
1717011060836695600,26.327695556640624,1.052199125289917,1.52390718460083,1.2599773406982422
1717011060896723500,26.387723388671876,1.8045799732208252,-0.6513128280639648,2.619871139526367
1717011060956721000,26.447720947265626,1.7120006084442139,-0.5886173248291016,2.901280403137207
1717011061016718600,26.507718505859376,0.4145224690437317,-0.97298264503479,0.5838699340820312
1717011061076716000,26.567716064453126,-0.024234294891357422,-2.069004774093628,-1.4546031951904297
1717011061136713700,26.627713623046876,-0.24707797169685364,-3.002392292022705,-2.623380184173584
1717011061196711200,26.687711181640626,-0.34246695041656494,-4.337893962860107,-2.644686222076416
1717011061256708900,26.747708984375,-0.2657587230205536,-4.257283687591553,-1.4941577911376953
1717011061316706600,26.80770654296875,0.009690791368484497,-4.239295959472656,-1.0547914505004883
1717011061376704000,26.8677041015625,-0.40100833773612976,-0.47705721855163574,-2.668985366821289
1717011061436701400,26.927701416015626,1.6109663248062134,-1.0868852138519287,-2.8036651611328125
1717011061496699100,26.98769921875,2.8527565002441406,-1.0356066226959229,1.0455598831176758
1717011061556696600,27.047696533203126,1.0196304321289062,1.061361312866211,3.321592330932617
1717011061616724700,27.107724853515624,-1.954223871231079,1.8672442436218262,2.21560001373291
1717011061676722200,27.16772216796875,-0.16414162516593933,3.012272596359253,0.9239320755004883
1717011061736720000,27.227719970703124,-0.16030830144882202,3.5083227157592773,1.648162841796875
1717011061796717300,27.28771728515625,-0.9843229055404663,1.9896981716156006,1.4280824661254883
1717011061856715000,27.347715087890624,0.8917431831359863,1.269547939300537,3.472787857055664
1717011061916712700,27.407712646484374,1.5752513408660889,0.33707594871520996,2.66558837890625
1717011061976710100,27.467710205078124,1.685808539390564,-0.1575605869293213,2.841215133666992
1717011062036707600,27.52770751953125,-0.7417933940887451,-0.4283783435821533,0.6767969131469727
1717011062096705300,27.587705322265624,0.40946340560913086,-2.836920976638794,0.4645109176635742
1717011062156702700,27.64770263671875,0.12288755178451538,-3.081092596054077,1.2673587799072266
1717011062216700400,27.707700439453124,1.4119162559509277,-3.674988031387329,-0.4631996154785156
1717011062276697900,27.76769775390625,1.0676778554916382,-4.320549964904785,-3.3349838256835938
1717011062336695600,27.827695556640624,0.6197977662086487,-4.894802093505859,-4.675899028778076
1717011062396723500,27.887723388671876,-0.49090370535850525,-5.559167385101318,-4.243577480316162
1717011062456721000,27.947720947265626,-1.0193424224853516,-5.980452537536621,-2.4546613693237305
1717011062516718600,28.007718505859376,-0.352770060300827,-6.800777912139893,0.075469970703125
1717011062576716000,28.067716064453126,1.8795499801635742,-3.8037185668945312,-0.6068439483642578
1717011062636713700,28.127713623046876,0.07412789762020111,-2.0169100761413574,-0.04874992370605469
1717011062696711200,28.187711181640626,1.1726807355880737,-1.6902072429656982,4.031741142272949
1717011062756708900,28.247708984375,2.124436140060425,2.492152214050293,5.513516426086426
1717011062816706600,28.30770654296875,1.2815855741500854,4.04030704498291,2.168701171875
1717011062876704000,28.3677041015625,1.9328776597976685,4.601529121398926,1.4410772323608398
1717011062936701400,28.427701416015626,2.851059913635254,4.413464546203613,1.2384357452392578
1717011062996699100,28.48769921875,3.1196627616882324,2.60670804977417,2.0538063049316406
1717011063056696600,28.547696533203126,2.997715473175049,0.8827939033508301,2.8577756881713867
1717011063116724700,28.607724853515624,7.716520309448242,0.691431999206543,1.9574871063232422
1717011063176722200,28.66772216796875,0.31806641817092896,-0.19833779335021973,0.5282669067382812
1717011063236719900,28.727719970703124,2.351386070251465,-2.7837424278259277,1.5159587860107422
1717011063296717300,28.78771728515625,1.538933277130127,-2.0030877590179443,0.7186908721923828
1717011063356715000,28.847715087890624,2.8779456615448,-2.7161550521850586,-0.6072521209716797
1717011063416712700,28.907712646484374,-0.22058454155921936,-3.587948799133301,-1.7776288986206055
1717011063476710100,28.967710205078124,-0.5316758155822754,-4.047921657562256,-1.849179744720459
1717011063536707600,29.02770751953125,-0.47171032428741455,-4.530643463134766,-2.488492965698242
1717011063596705300,29.087705322265624,0.5575567483901978,-4.5915846824646,-3.1897482872009277
1717011063656702700,29.14770263671875,0.08255785703659058,-6.239409446716309,-1.7813029289245605
1717011063716700400,29.207700439453124,1.3748334646224976,-1.7412705421447754,-1.2783079147338867
1717011063776697900,29.26769775390625,0.37715691328048706,-2.1415395736694336,-0.5254716873168945
1717011063836695600,29.327695556640624,0.7856160998344421,-2.1200289726257324,2.0687522888183594
1717011063896723500,29.387723388671876,2.810894012451172,-0.19019103050231934,0.4549074172973633
1717011063956721000,29.447720947265626,1.279573917388916,1.3433504104614258,1.348118782043457
1717011064016718600,29.507718505859376,3.1365158557891846,2.3456215858459473,2.8503904342651367
1717011064076716000,29.567716064453126,3.491331100463867,4.2876763343811035,3.240950584411621
1717011064136713700,29.627713623046876,2.4713995456695557,4.672797679901123,4.40364933013916
1717011064196711200,29.687711181640626,2.0613951683044434,4.631821632385254,5.015683174133301
1717011064256708900,29.747708984375,2.6703131198883057,3.328768253326416,3.7459630966186523
1717011064316706600,29.80770654296875,3.0238966941833496,3.6161446571350098,2.9617648124694824
1717011064376704000,29.8677041015625,1.470245599746704,0.8687891960144043,2.1531076431274414
1717011064436701400,29.927701416015626,2.4495279788970947,-1.281447410583496,4.099303245544434
1717011064476774000,29.96777392578125,2.892559766769409,-1.1952600479125977,3.553943634033203
1717011064517057000,30.00805712890625,2.2798943519592285,-1.3604159355163574,1.2817697525024414
1717011064557065700,30.048065673828123,2.0263001918792725,-2.16150164604187,0.0810384750366211
1717011064597043500,30.08804345703125,1.9381940364837646,-3.1595892906188965,-1.3675479888916016
1717011064637052200,30.12805224609375,1.8733564615249634,-3.636308431625366,-2.257065773010254
1717011064677060600,30.168060546875,1.8037760257720947,-3.900421619415283,-3.1915225982666016
1717011064717038800,30.208038818359373,1.6064128875732422,-4.176968097686768,-3.8114328384399414
1717011064757047300,30.24804736328125,1.1807897090911865,-4.552494049072266,-3.373284339904785
1717011064797055700,30.2880556640625,1.084505558013916,-4.298914909362793,-3.187643051147461
1717011064837064400,30.328064453125,1.004493236541748,-3.9167017936706543,-2.8346052169799805
1717011064877042200,30.368042236328126,0.4969698488712311,-4.39285945892334,-2.4096641540527344
1717011064917051000,30.40805078125,1.863139033317566,-2.4318604469299316,-2.1610779762268066
1717011064957058600,30.44805859375,0.8103554248809814,-0.13193178176879883,-1.3005657196044922
1717011064997617400,30.488617431640623,1.2161433696746826,-1.6400830745697021,-0.2214822769165039
1717011065038205700,30.529205810546873,0.2925240099430084,-1.388702630996704,1.8666563034057617
1717011065078214100,30.569214111328126,-0.9104174375534058,0.1448512077331543,3.007894515991211
1717011065118192400,30.6091923828125,-0.8508370518684387,1.6753504276275635,3.677722930908203
1717011065168759800,30.659759765625,0.39551499485969543,2.792649030685425,4.519810199737549
1717011065208768500,30.6997685546875,1.000760555267334,4.043923377990723,3.9243621826171875
1717011065268766000,30.759765869140626,1.8378514051437378,4.987359523773193,3.3568382263183594
1717011065328763600,30.819763671875,1.3547271490097046,4.721297740936279,3.7767081260681152
1717011065388761000,30.879760986328126,1.1546874046325684,3.9072844982147217,4.622400760650635
1717011065448758500,30.939758544921876,1.2403349876403809,3.5189714431762695,4.119692802429199
1717011065508756500,30.999756591796874,1.0561147928237915,1.8648576736450195,3.155217170715332
1717011065568754000,31.05975390625,3.7986559867858887,2.971406936645508,1.346714973449707
1717011065628751400,31.11975146484375,2.469576358795166,-0.7830781936645508,1.5360345840454102
1717011065688749000,31.1797490234375,1.1600806713104248,-1.0887527465820312,2.2457685470581055
1717011065748746500,31.23974658203125,1.4936535358428955,-0.3479804992675781,1.4286670684814453
1717011065808744200,31.299744140625,0.6605067849159241,-1.1844298839569092,-0.20306396484375
1717011065868741600,31.35974169921875,-0.6374854445457458,-2.5169970989227295,-1.3534746170043945
1717011065928769800,31.419769775390623,0.2591419816017151,-3.0148777961730957,-1.6542425155639648
1717011065988767200,31.479767333984373,1.216874122619629,-3.647958755493164,-1.516347885131836
1717011066048764700,31.5397646484375,1.3774924278259277,-4.197175025939941,-2.461714267730713
1717011066108762400,31.599762451171873,0.041807353496551514,-1.438603162765503,-4.383843421936035
1717011066168759800,31.659759765625,-1.7402725219726562,-1.037797212600708,-3.012315273284912
1717011066228757500,31.719757568359373,-0.6728285551071167,-3.1483256816864014,0.14282798767089844
1717011066288755200,31.779755126953123,-0.2934674024581909,-0.9527802467346191,0.7744789123535156
1717011066348752400,31.83975244140625,-2.612535238265991,0.8357222080230713,2.347996711730957
1717011066408750300,31.899750244140623,-1.6507647037506104,2.487553358078003,3.3856430053710938
1717011066468747800,31.959747802734373,-0.9500041604042053,3.4821839332580566,3.3374862670898438
1717011066528745200,32.0197451171875,-1.9273914098739624,3.911020278930664,3.4464802742004395
1717011066588743000,32.07974291992188,-0.7754309177398682,3.694056510925293,4.082568645477295
1717011066648740400,32.139740234375,0.7921820878982544,3.728846549987793,4.460220813751221
1717011066708768500,32.1997685546875,1.8949154615402222,2.470398426055908,3.386174201965332
1717011066768766000,32.25976586914062,0.1310971975326538,3.7776670455932617,3.6398420333862305
1717011066828763600,32.319763671875,-0.258026123046875,0.7889590263366699,2.677731990814209
1717011066888761000,32.37976098632812,-1.271529197692871,-0.9998183250427246,3.322620391845703
1717011066948758500,32.43975854492187,-0.9696113467216492,-0.5530498027801514,2.615506172180176
1717011067008756200,32.49975610351562,-0.4710819721221924,-1.8931069374084473,0.11293792724609375
1717011067068754000,32.55975390625,-0.9771347641944885,-3.5166468620300293,-1.1706838607788086
1717011067128751400,32.61975146484375,-1.1450252532958984,-4.487460136413574,-3.1711392402648926
1717011067188749000,32.6797490234375,-0.9865034818649292,-5.942408561706543,-4.062707901000977
1717011067248746500,32.73974658203125,-0.7613459229469299,-5.821397304534912,-3.915071487426758
1717011067308744200,32.799744140625,-1.4375430345535278,-5.59379243850708,-2.611711025238037
1717011067368741600,32.85974169921875,-0.008833527565002441,-3.0794315338134766,-1.7343130111694336
1717011067428769500,32.91976953125,0.3959498405456543,-4.056231498718262,0.08210563659667969
1717011067488767200,32.97976733398438,0.12400460243225098,-1.877880573272705,1.761556625366211
1717011067548764700,33.0397646484375,-1.6116350889205933,0.7334725856781006,1.199239730834961
1717011067608762400,33.09976245117188,-1.5750281810760498,2.55547833442688,2.846911907196045
1717011067668759800,33.159759765625,-1.2003040313720703,3.9430387020111084,4.805174827575684
1717011067728757500,33.21975756835938,-1.3168489933013916,4.418601989746094,5.652420520782471
1717011067788755200,33.27975512695313,-2.0609025955200195,4.471879482269287,6.217284679412842
1717011067848752400,33.33975244140625,-1.5341291427612305,3.8181588649749756,5.446662425994873
1717011067908750300,33.39975024414063,-0.12922322750091553,3.0282933712005615,3.1304616928100586
1717011067968747800,33.45974780273438,-1.5127912759780884,2.50152325630188,3.15578556060791
1717011068028745200,33.5197451171875,-1.4383652210235596,-1.0073370933532715,4.174816608428955
1717011068088743000,33.57974291992188,-1.037474274635315,-1.8115835189819336,3.8935365676879883
1717011068148740400,33.639740234375,-1.2868635654449463,-2.114906072616577,0.5208978652954102
1717011068208768500,33.6997685546875,-1.2510766983032227,-2.693585157394409,-1.5361113548278809
1717011068268766000,33.75976586914062,-1.7336843013763428,-3.489382266998291,-2.7639102935791016
1717011068328763600,33.819763671875,-2.5719101428985596,-4.44545316696167,-3.0756049156188965
1717011068388761000,33.87976098632812,-1.889073371887207,-4.84084939956665,-3.062891960144043
1717011068448758500,33.93975854492187,-1.397235631942749,-4.439695835113525,-3.3954787254333496
1717011068508756200,33.99975610351562,-0.633331835269928,-5.171074867248535,-1.9820771217346191
1717011068568754000,34.05975390625,-0.9524445533752441,-1.4541411399841309,-2.12921142578125
1717011068628751400,34.11975146484375,0.3194786310195923,-3.430471897125244,0.6036491394042969
1717011068688749000,34.1797490234375,0.20443415641784668,-1.1474590301513672,3.00277042388916
1717011068748746500,34.23974658203125,2.6980466842651367,1.9632067680358887,3.6283063888549805
1717011068808744200,34.299744140625,-0.2954348921775818,3.7150537967681885,4.672399997711182
1717011068868741600,34.35974169921875,-1.5020570755004883,5.013815402984619,5.468943119049072
1717011068928769500,34.41976953125,1.1781671047210693,5.692119598388672,5.1705522537231445
1717011068988767200,34.47976733398438,2.6400861740112305,5.977298736572266,7.553684711456299
1717011069048764700,34.5397646484375,1.2555822134017944,6.338324069976807,9.43679428100586
1717011069108762400,34.59976245117188,-0.4192015528678894,5.579812049865723,6.120229721069336
1717011069168759800,34.659759765625,0.7294488549232483,3.3904929161071777,4.326327800750732
1717011069228757500,34.71975756835938,1.1314579248428345,0.450838565826416,4.9150848388671875
1717011069288755200,34.77975512695313,-0.6603320240974426,-0.2784767150878906,5.198192119598389
1717011069348752400,34.83975244140625,-0.1258862018585205,-1.559715747833252,2.4501523971557617
1717011069408750300,34.89975024414063,0.28535306453704834,-2.9706356525421143,0.08299636840820312
1717011069468747800,34.95974780273438,-0.14329373836517334,-3.6555209159851074,-2.13690185546875
1717011069528745200,35.0197451171875,-0.8068768978118896,-4.815652847290039,-4.0438761711120605
1717011069588743000,35.07974291992188,-0.6283633708953857,-5.103873252868652,-4.3302764892578125
1717011069648740400,35.139740234375,-0.6209288835525513,-5.618288040161133,-3.038827896118164
1717011069708768500,35.1997685546875,-1.173499584197998,-2.7043418884277344,-3.200221538543701
1717011069768766000,35.25976586914062,-0.6929630041122437,-1.8309985399246216,-2.761650562286377
1717011069828763600,35.319763671875,-0.649950385093689,-3.291508913040161,0.7297487258911133
1717011069888761000,35.37976098632812,0.5306459069252014,-1.0233490467071533,2.669236183166504
1717011069948758500,35.43975854492187,0.20530980825424194,1.9107062816619873,2.764101028442383
1717011070008756200,35.49975610351562,0.6171610355377197,3.72385311126709,3.903510093688965
1717011070068754000,35.55975390625,0.9583358764648438,5.392303943634033,4.824503421783447
1717011070128751400,35.61975146484375,1.2104582786560059,5.834325790405273,5.323635578155518
1717011070188749000,35.6797490234375,0.6563163995742798,5.317803382873535,5.935983180999756
1717011070248746500,35.73974658203125,0.3080143928527832,3.986184597015381,6.293334007263184
1717011070289189600,35.78018969726563,0.23453593254089355,4.527615547180176,5.2995100021362305
1717011070339757000,35.83075708007812,0.1415799856185913,4.618777275085449,3.248826026916504
1717011070379735000,35.87073510742187,0.01849949359893799,3.4695379734039307,2.0161099433898926
1717011070419743700,35.91074365234375,-0.601987361907959,1.075432300567627,2.7211194038391113
1717011070459752200,35.95075219726562,-2.751476287841797,-0.5235404968261719,3.0803451538085938
1717011070499730200,35.99073022460937,-3.4359569549560547,-1.007969856262207,3.929837226867676
1717011070539739000,36.03073876953125,-1.6144652366638184,-0.7530899047851562,2.5338048934936523
1717011070579747300,36.07074731445312,-0.08704590797424316,-1.1472883224487305,0.14894580841064453
1717011070619755800,36.110755859375,0.18193411827087402,-1.7966136932373047,-1.711186408996582
1717011070659733800,36.150733642578125,-1.267345666885376,-1.9761066436767578,-3.2847628593444824
1717011070699742500,36.19074243164062,-1.9827065467834473,-2.3145227432250977,-3.6868767738342285
1717011070739751000,36.2307509765625,-1.9976340532302856,-2.499907970428467,-2.9919071197509766
1717011070779729000,36.27072900390625,-0.8432289958000183,-2.6595518589019775,-1.9248566627502441
1717011070819737600,36.31073754882812,-0.4610369801521301,-2.78826642036438,-1.579270839691162
1717011070859745800,36.350745849609375,-0.37347790598869324,-2.2762410640716553,-1.190866470336914
1717011070899754500,36.39075439453125,-0.9880635142326355,-2.168487071990967,-0.7334613800048828
1717011070939732700,36.43073266601562,0.517042338848114,-0.8625819683074951,0.019313812255859375
1717011070979741200,36.4707412109375,1.320380687713623,-1.4726402759552002,-0.2287769317626953
1717011071019749600,36.51074951171875,3.1972768306732178,-2.321300983428955,0.6343173980712891
1717011071059728000,36.55072778320312,2.9304964542388916,-1.141042709350586,1.6121234893798828
1717011071099736300,36.590736328125,3.109804391860962,0.6028599739074707,0.5253782272338867
1717011071139745000,36.6307451171875,3.0074925422668457,1.1813759803771973,-0.05184364318847656
1717011071179753200,36.670753173828125,3.2273693084716797,1.1432323455810547,1.0389184951782227
1717011071219731500,36.7107314453125,3.525010108947754,1.5360469818115234,1.9469494819641113
1717011071259740000,36.75073999023437,4.079298973083496,2.6538920402526855,2.266324996948242
1717011071299748600,36.79074853515625,3.9455389976501465,3.3271424770355225,1.6699953079223633
1717011071339757000,36.83075708007812,5.607017993927002,3.124812126159668,2.34950590133667
1717011071379735000,36.87073510742187,5.017120361328125,3.386212110519409,3.3017196655273438
1717011071419743700,36.91074365234375,3.589231014251709,2.02862548828125,4.284048080444336
1717011071459752200,36.95075219726562,3.745236873626709,2.118687868118286,4.309318542480469
1717011071499730200,36.99073022460937,3.6899495124816895,2.9437620639801025,3.802415370941162
1717011071539739000,37.03073876953125,3.108808994293213,3.4310789108276367,2.3155813217163086
1717011071579747300,37.07074731445312,0.34419798851013184,2.3146350383758545,1.648676872253418
1717011071619755800,37.110755859375,-2.2686264514923096,0.18882369995117188,1.819345474243164
1717011071659733800,37.150733642578125,-1.1196494102478027,-1.6202399730682373,2.1407032012939453
1717011071699742500,37.19074243164062,1.1958914995193481,-1.727109670639038,1.5558195114135742
1717011071740178200,37.23117822265625,1.7209978103637695,-1.807035207748413,0.9922828674316406
1717011071800175600,37.291175537109375,-0.753653883934021,-2.3822274208068848,0.3537130355834961
1717011071860173300,37.35117333984375,-1.3318454027175903,-3.0699079036712646,-1.393599510192871
1717011071920170800,37.411170654296875,-1.967531681060791,-3.8335611820220947,-3.693934917449951
1717011071980168400,37.47116845703125,0.531035840511322,-4.866642951965332,-4.32864236831665
1717011072040166000,37.531165771484375,0.595696210861206,-5.376448154449463,-3.003096103668213
1717011072100163600,37.59116357421875,1.1005184650421143,-7.465297698974609,0.9061956405639648
1717011072160161000,37.6511611328125,4.383256435394287,-3.60585355758667,0.3592796325683594
1717011072220158500,37.711158447265625,2.9210848808288574,-2.5757246017456055,-1.8794002532958984
1717011072280187000,37.77118676757812,2.0829179286956787,-3.220602512359619,1.2682819366455078
1717011072340184300,37.83118432617187,3.6154632568359375,-1.2791383266448975,-1.197530746459961
1717011072400181800,37.891181640625,2.3493776321411133,0.07942533493041992,-1.526721477508545
1717011072460179500,37.95117944335937,1.2673126459121704,1.2084167003631592,0.7584695816040039
1717011072520177000,38.01117700195312,2.078148603439331,2.8438327312469482,3.0036697387695312
1717011072580174600,38.07117456054687,2.9049110412597656,2.0314857959747314,2.3067474365234375
1717011072640172000,38.13117211914062,0.0712573230266571,1.488185167312622,2.4233999252319336
1717011072700169700,38.19116967773437,-0.2641916573047638,1.3220856189727783,3.4633073806762695
1717011072760167200,38.25116723632812,-0.17022258043289185,1.5795567035675049,1.7623300552368164
1717011072820164600,38.31116455078125,-0.8987776637077332,0.7363295555114746,0.7627277374267578
1717011072880162600,38.37116259765625,-0.6632693409919739,-2.7685322761535645,1.917922019958496
1717011072940159700,38.43115966796875,0.5021443367004395,-3.530189275741577,2.684453010559082
1717011073000188000,38.49118798828125,-0.4351489245891571,-3.4321060180664062,-0.5652284622192383
1717011073060185600,38.551185546875,0.8128726482391357,-4.477339267730713,-2.345693588256836
1717011073120183000,38.61118310546875,-0.14190584421157837,-5.225491523742676,-3.44728946685791
1717011073180180700,38.6711806640625,-0.7253972291946411,-5.683879375457764,-3.581939220428467
1717011073240178200,38.73117822265625,-0.590032160282135,-6.703662872314453,-3.769664764404297
1717011073300175600,38.791175537109375,-0.3399975597858429,-7.402835369110107,-0.7368249893188477
1717011073360173300,38.85117333984375,1.8750596046447754,-2.830965042114258,-2.672205924987793
1717011073420170800,38.911170654296875,2.4184322357177734,-3.7457492351531982,-0.7030086517333984
1717011073480168400,38.97116845703125,-0.33737289905548096,-2.635469913482666,3.0584774017333984
1717011073540166000,39.031165771484375,0.6645152568817139,0.015261173248291016,0.7756834030151367
1717011073600163600,39.09116357421875,0.08537962287664413,1.1189250946044922,0.29138755798339844
1717011073660161000,39.1511611328125,0.31637945771217346,1.9909062385559082,1.6680850982666016
1717011073720158500,39.211158447265625,1.0989727973937988,2.9040112495422363,1.502446174621582
1717011073780187000,39.27118676757812,1.1265400648117065,2.2036802768707275,3.1967105865478516
1717011073840184300,39.33118432617187,1.4411786794662476,1.6482040882110596,3.7226743698120117
1717011073900181800,39.391181640625,3.62678861618042,-0.5849266052246094,1.8370866775512695
1717011073960179500,39.45117944335937,2.2880032062530518,-0.07184123992919922,0.6190652847290039
1717011074020177000,39.51117700195312,0.5694503784179688,-1.3934805393218994,0.17031574249267578
1717011074080174600,39.57117456054687,2.3004143238067627,-3.40582537651062,2.0658178329467773
1717011074140172000,39.63117211914062,2.2274744510650635,-2.6537280082702637,1.1463403701782227
1717011074200169700,39.69116967773437,2.796640634536743,-3.6496996879577637,-1.4835052490234375
1717011074260167200,39.75116723632812,0.6008692383766174,-2.3733835220336914,-2.6991372108459473
1717011074320164900,39.81116479492187,1.3721857070922852,-3.1375088691711426,-3.6158785820007324
1717011074380162300,39.87116235351562,0.3598860502243042,-4.045100212097168,-3.332848072052002
1717011074440160000,39.93115991210937,0.6480532884597778,-4.056199550628662,-2.089355945587158
1717011074500188000,39.99118798828125,0.3463996648788452,-4.042142868041992,-1.331756591796875
1717011074560185600,40.051185546875,1.7377125024795532,-0.3135085105895996,-1.5811786651611328
1717011074620183000,40.11118310546875,1.2453373670578003,-1.2295427322387695,-0.1868448257446289
1717011074680180700,40.1711806640625,0.13655249774456024,-0.929563045501709,2.50858211517334
1717011074740178200,40.23117822265625,0.42377886176109314,1.5262598991394043,1.6850347518920898
1717011074800175900,40.29117578125,0.544549822807312,2.504289388656616,1.5733323097229004
1717011074860173300,40.35117333984375,0.10844093561172485,3.4409759044647217,2.9349751472473145
1717011074920170800,40.411170654296875,-0.17449471354484558,4.435516357421875,4.311518669128418
1717011074980168400,40.47116845703125,0.2700529098510742,4.313478469848633,4.8963494300842285
1717011075040166000,40.531165771484375,-0.19075214862823486,4.0209479331970215,6.053158283233643
1717011075100163600,40.59116357421875,0.927314281463623,2.816441059112549,6.126888751983643
1717011075160161000,40.6511611328125,0.08522635698318481,3.6289989948272705,3.6467738151550293
1717011075220158700,40.71115869140625,0.5865951776504517,-0.31674671173095703,3.7496204376220703
1717011075280187000,40.77118676757812,0.05908244848251343,-1.8405508995056152,3.507566452026367
1717011075340184300,40.83118432617187,0.00019073486328125,-1.9093959331512451,1.1058616638183594
1717011075400181800,40.891181640625,0.19787907600402832,-2.705071449279785,-1.4667973518371582
1717011075460179500,40.95117944335937,-0.6311994791030884,-1.3699510097503662,-2.092067241668701
1717011075520177000,41.01117700195312,-0.639685869216919,-2.6499674320220947,-3.2199525833129883
1717011075580174600,41.07117456054687,-0.3869675099849701,-3.8052709102630615,-4.371793746948242
1717011075640172000,41.13117211914062,0.03098142147064209,-4.429969787597656,-3.0288190841674805
1717011075700169700,41.19116967773437,1.7603613138198853,-3.024714946746826,-2.0815930366516113
1717011075760167200,41.25116723632812,2.2328288555145264,-0.1410236358642578,-1.3781113624572754
1717011075820164600,41.31116455078125,1.7963793277740479,-2.2306594848632812,2.6325082778930664
1717011075880162600,41.37116259765625,2.008819580078125,1.2065911293029785,5.305963039398193
1717011075940160000,41.43115991210937,2.873502016067505,3.1737146377563477,3.3139286041259766
1717011076000188000,41.49118798828125,3.118989944458008,4.153896331787109,4.478908061981201
1717011076060185600,41.551185546875,3.2768380641937256,5.530562400817871,6.204148769378662
1717011076120183000,41.61118310546875,3.694240093231201,6.067210674285889,6.598058223724365
1717011076180180700,41.6711806640625,3.017904043197632,5.93941593170166,8.013765335083008
1717011076240178200,41.73117822265625,1.2414954900741577,4.472984790802002,8.612512588500977
1717011076300175600,41.791175537109375,2.8714122772216797,4.236432075500488,6.817108154296875
1717011076360173300,41.85117333984375,1.5679128170013428,2.9590554237365723,4.920302391052246
1717011076420170800,41.911170654296875,0.38798609375953674,-0.4496493339538574,4.799202919006348
1717011076480168400,41.97116845703125,-0.5377918481826782,-1.4635376930236816,3.89901065826416
1717011076540166000,42.031165771484375,-0.24060580134391785,-1.6436638832092285,0.15764904022216797
1717011076600163600,42.09116357421875,0.37990182638168335,-1.8261370658874512,-2.882288932800293
1717011076660161000,42.1511611328125,-0.2805936336517334,-1.967054843902588,-3.931882858276367
1717011076720158500,42.211158447265625,0.30800139904022217,-3.050485134124756,-3.7105889320373535
1717011076780187000,42.27118676757812,1.6519012451171875,-3.1059439182281494,-3.1903305053710938
1717011076839765000,42.330764892578124,1.6508747339248657,-3.010765552520752,-2.137934684753418
1717011076879403800,42.37040380859375,1.442107081413269,-4.076279163360596,-0.2621030807495117
1717011076920331500,42.41133154296875,3.941413402557373,-3.37015962600708,0.14857006072998047
1717011076960340000,42.45134008789063,5.549269199371338,-0.4262728691101074,0.6540260314941406
1717011077000318000,42.49131787109375,5.6314873695373535,-0.9489946365356445,0.7845268249511719
1717011077040326700,42.53132666015625,4.724325180053711,-1.4874062538146973,3.1692380905151367
1717011077080335000,42.57133520507813,3.57590913772583,0.2099156379699707,4.000217914581299
1717011077120313000,42.61131298828125,3.9797816276550293,1.7731356620788574,2.844270706176758
1717011077160321500,42.651321533203124,4.663811683654785,2.0176219940185547,1.3926501274108887
1717011077200330200,42.69133032226563,5.2786455154418945,2.0543930530548096,1.1017518043518066
1717011077240339000,42.7313388671875,5.240509033203125,2.342010498046875,1.5683379173278809
1717011077280316700,42.771316650390624,5.150424957275391,2.5696446895599365,2.3042750358581543
1717011077320325400,42.81132543945313,5.271690368652344,3.002755880355835,3.1128244400024414
1717011077360333800,42.851333740234374,4.877421855926514,2.909226417541504,3.8198204040527344
1717011077400311800,42.891311767578124,5.469987392425537,2.9860570430755615,4.864893913269043
1717011077440320300,42.9313203125,4.056614875793457,1.5516777038574219,5.176431655883789
1717011077480329000,42.971328857421874,3.3150014877319336,1.5461597442626953,4.832580089569092
1717011077520337700,43.01133764648438,2.9601712226867676,1.7375192642211914,3.436798095703125
1717011077560315600,43.05131567382813,2.7114200592041016,1.0732066631317139,1.5807933807373047
1717011077600324000,43.091323974609374,0.34900540113449097,-1.154322624206543,1.046107292175293
1717011077640344000,43.13134399414062,0.10407119989395142,-2.98660945892334,1.9549236297607422
1717011077710889200,43.20188916015625,0.01671457290649414,-3.2707021236419678,-0.34473419189453125
1717011077770887000,43.26188696289063,1.0207509994506836,-3.204866409301758,-2.081315517425537
1717011077830884400,43.32188427734375,0.05077683925628662,-3.1896605491638184,-2.7993221282958984
1717011077890882000,43.38188208007813,1.159003496170044,-3.7713372707366943,-2.6861886978149414
1717011077950879500,43.44187939453125,1.8965332508087158,-4.767403602600098,-2.788785934448242
1717011078010877200,43.50187719726563,2.6300387382507324,-5.418320178985596,-2.7524399757385254
1717011078070874600,43.56187451171875,1.9591000080108643,-5.8341593742370605,-1.7800278663635254
1717011078130872000,43.6218720703125,2.88863468170166,-3.2758378982543945,-1.33648681640625
1717011078190869800,43.68186987304688,3.1846461296081543,-2.5425431728363037,-0.25295352935791016
1717011078250867200,43.7418671875,2.441025733947754,-1.4077222347259521,2.904322624206543
1717011078310865000,43.80186499023438,3.407780647277832,1.5384857654571533,2.325070381164551
1717011078370862300,43.8618623046875,2.5093507766723633,2.2464184761047363,1.503514289855957
1717011078430890500,43.921890380859374,2.152275562286377,2.525745153427124,2.064751625061035
1717011078490888200,43.98188818359375,2.4512832164764404,2.678255081176758,1.7955121994018555
1717011078550885600,44.0418857421875,1.7880431413650513,1.8224623203277588,2.784182548522949
1717011078610883000,44.101883056640624,2.0119314193725586,0.9105467796325684,2.545787811279297
1717011078670880800,44.161880859375,5.273712158203125,-0.9296059608459473,3.1160898208618164
1717011078730878200,44.221878173828124,3.803743839263916,-0.39756250381469727,0.9908838272094727
1717011078790876000,44.2818759765625,2.4935710430145264,-3.5986902713775635,0.6157112121582031
1717011078850873300,44.341873291015624,2.8222107887268066,-3.86112642288208,0.2666635513305664
1717011078910871000,44.40187109375,3.7647786140441895,-4.007245063781738,-0.9852275848388672
1717011078970868500,44.461868408203124,2.318361520767212,-4.409662246704102,-2.626844882965088
1717011079030866200,44.5218662109375,0.2706950902938843,-4.366950035095215,-3.0360732078552246
1717011079090863600,44.581863525390624,-0.7082730531692505,-4.763881683349609,-2.720539093017578
1717011079150861300,44.641861328125,-1.972841739654541,-5.03590726852417,-0.7811956405639648
1717011079210889200,44.70188916015625,1.487847089767456,-6.506200790405273,-2.1997151374816895
1717011079270887000,44.76188696289063,7.725524425506592,-4.548418998718262,0.49750518798828125
1717011079330884400,44.82188427734375,-0.9893940687179565,-0.6346887946128845,-0.010347366333007812
1717011079390882000,44.88188208007813,-0.6971093416213989,-3.947509765625,0.4187135696411133
1717011079450879500,44.94187939453125,-0.3673107624053955,-3.461629867553711,-0.29186058044433594
1717011079510877200,45.00187719726563,2.6848509311676025,-2.6286723613739014,-3.1630234718322754
1717011079570874600,45.06187451171875,3.0539262294769287,-3.2426226139068604,-2.1093130111694336
1717011079630872000,45.1218720703125,3.6432414054870605,-2.587555408477783,-0.3413715362548828
1717011079690869800,45.18186987304688,2.1327786445617676,0.02583599090576172,0.6825647354125977
1717011079750867200,45.2418671875,0.8010469675064087,1.7980504035949707,3.427760124206543
1717011079810865000,45.30186499023438,-0.5855044722557068,2.5317013263702393,5.457915306091309
1717011079870862300,45.3618623046875,-0.7747411131858826,3.2823541164398193,3.4414196014404297
1717011079930890500,45.421890380859374,-0.26278698444366455,2.9871206283569336,2.438288688659668
1717011079990888200,45.48188818359375,-0.9217747449874878,1.5389375686645508,1.5970783233642578
1717011080050885600,45.5418857421875,-1.2156919240951538,-1.3275766372680664,3.689281463623047
1717011080110883000,45.601883056640624,-0.41857028007507324,-1.6264557838439941,2.0081701278686523
1717011080170880800,45.661880859375,-0.426081120967865,-2.998257637023926,-0.90966796875
1717011080230878200,45.721878173828124,-1.370992660522461,-3.8368124961853027,-2.3320298194885254
1717011080290876000,45.7818759765625,-1.7593367099761963,-4.302426338195801,-3.2589101791381836
1717011080350873300,45.841873291015624,-1.4565703868865967,-5.60956335067749,-3.4782724380493164
1717011080410871000,45.90187109375,-0.8970307111740112,-5.736105442047119,-2.8780555725097656
1717011080470868500,45.961868408203124,-0.8445552587509155,-6.529144287109375,-1.4843645095825195
1717011080530866000,46.021865966796874,0.03247806429862976,-3.509152412414551,-2.2415647506713867
1717011080590863600,46.081863525390624,0.2173854112625122,-3.338489532470703,-1.3474664688110352
1717011080650861000,46.141861083984374,-0.49751055240631104,-3.668876886367798,1.3656158447265625
1717011080710889200,46.20188916015625,-0.41679245233535767,-1.0086054801940918,0.2805023193359375
1717011080770887000,46.26188696289063,-0.15271806716918945,0.5543675422668457,-0.041385650634765625
1717011080830884400,46.32188427734375,-0.07307571172714233,1.6944079399108887,1.8109254837036133
1717011080890882000,46.38188208007813,-0.31427520513534546,3.1836888790130615,3.5911083221435547
1717011080950879500,46.44187939453125,-1.0156079530715942,3.3011045455932617,4.009190082550049
1717011081010877000,46.501876953125,-1.6539239883422852,2.7281570434570312,3.9991307258605957
1717011081070874600,46.56187451171875,-0.2374018430709839,1.5019817352294922,3.8573875427246094
1717011081130872000,46.6218720703125,-0.24897253513336182,0.9936661720275879,2.488253593444824
1717011081190869800,46.68186987304688,-0.8262971043586731,0.47385692596435547,0.9029760360717773
1717011081250867200,46.7418671875,-1.2339403629302979,-2.476210832595825,1.053497314453125
1717011081310865000,46.80186499023438,-1.857783555984497,-3.1950812339782715,2.850526809692383
1717011081370862300,46.8618623046875,-0.9490598440170288,-3.1518821716308594,0.46358299255371094
1717011081430890500,46.921890380859374,-0.21717798709869385,-4.3781561851501465,-2.2532310485839844
1717011081490888200,46.98188818359375,-1.4824398756027222,-5.2505364418029785,-3.2781105041503906
1717011081550885600,47.0418857421875,-1.4493062496185303,-5.707644462585449,-3.731442451477051
1717011081610883000,47.101883056640624,-1.348723292350769,-5.947041988372803,-3.9617319107055664
1717011081670880800,47.161880859375,-0.8904576897621155,-5.916254997253418,-3.181061267852783
1717011081730878200,47.221878173828124,-0.5077303051948547,-6.546347618103027,-1.2346019744873047
1717011081790876000,47.2818759765625,0.032282233238220215,-4.032598972320557,-0.8589963912963867
1717011081850873300,47.341873291015624,-0.7578983902931213,-1.7772493362426758,-0.0691061019897461
1717011081910871000,47.40187109375,0.29873383045196533,-3.331690788269043,2.7427968978881836
1717011081970868500,47.461868408203124,0.691635012626648,0.005947589874267578,2.7332334518432617
1717011082030866000,47.521865966796874,-0.2698720693588257,2.4890520572662354,1.7273378372192383
1717011082090863600,47.581863525390624,-0.888252317905426,2.9227187633514404,2.2772364616394043
1717011082150861300,47.641861328125,-0.19001638889312744,3.583775043487549,2.9562110900878906
1717011082210889200,47.70188916015625,0.10372340679168701,3.630674123764038,3.083597183227539
1717011082270887000,47.76188696289063,-1.0289415121078491,3.1858623027801514,4.481810569763184
1717011082330884400,47.82188427734375,-2.8046770095825195,1.5362482070922852,5.296106338500977
1717011082390882000,47.88188208007813,-2.0732548236846924,1.5424532890319824,3.7836084365844727
1717011082450879500,47.94187939453125,-0.8424586057662964,0.5687141418457031,2.0183963775634766
1717011082510877200,48.00187719726563,-2.6329753398895264,-1.9004640579223633,1.2937898635864258
1717011082570874600,48.06187451171875,-3.9124722480773926,-3.6049208641052246,1.2058277130126953
1717011082630872000,48.1218720703125,-3.2674732208251953,-3.5615222454071045,-1.1624507904052734
1717011082690869800,48.18186987304688,-2.4695417881011963,-3.420180559158325,-1.7946171760559082
1717011082750867200,48.2418671875,-3.185039520263672,-3.6785850524902344,-2.5644922256469727
1717011082790886000,48.28188598632813,-2.915154457092285,-4.1377177238464355,-2.641909122467041
1717011082841453600,48.33245361328125,-2.7617082595825195,-4.755158424377441,-3.05954647064209
1717011082881431600,48.372431640625,-2.629075527191162,-4.79098653793335,-2.8514962196350098
1717011082921440000,48.41243994140625,-1.7888522148132324,-4.396090507507324,-2.781777858734131
1717011082961448700,48.45244873046875,-1.0731154680252075,-4.226994037628174,-1.597093105316162
1717011083001426400,48.49242651367187,-1.0152233839035034,-6.280784606933594,0.6864700317382812
1717011083041435100,48.53243505859375,2.2642788887023926,-4.085719585418701,0.46335315704345703
1717011083081443800,48.57244384765625,3.7186474800109863,-2.5475265979766846,-0.12803077697753906
1717011083121452300,48.61245239257813,2.091708183288574,-1.642982006072998,-0.9276385307312012
1717011083161430500,48.65243041992188,1.7010996341705322,-1.221419334411621,1.2661571502685547
1717011083201438700,48.69243872070312,1.811956524848938,-1.2288193702697754,2.1481690406799316
1717011083241447400,48.73244750976563,2.593512535095215,-0.4786214828491211,2.27004337310791
1717011083281425700,48.77242578125,2.5020008087158203,1.1300020217895508,2.0969185829162598
1717011083321433900,48.81243383789062,2.0570483207702637,2.229428768157959,1.7482266426086426
1717011083361442600,48.85244262695313,2.516256332397461,2.985495090484619,2.473468780517578
1717011083401451000,48.89245092773437,2.945211172103882,3.5954039096832275,3.255305767059326
1717011083441429000,48.93242895507812,3.083730459213257,4.042952537536621,2.62858247756958
1717011083481437700,48.97243774414063,3.461400032043457,4.3104095458984375,2.794689655303955
1717011083521446100,49.01244604492187,2.697861671447754,4.508416175842285,2.675245761871338
1717011083561454800,49.05245483398438,2.732680320739746,4.166600704193115,2.95450496673584
1717011083601432600,49.0924326171875,2.562638998031616,4.212223529815674,3.3463125228881836
1717011083641441300,49.13244116210937,2.4476659297943115,4.045907974243164,4.012156963348389
1717011083681449700,49.17244970703125,0.8095734119415283,3.8545942306518555,4.175848960876465
1717011083721427700,49.212427734375,-0.22485795617103577,3.7026920318603516,4.404358863830566
1717011083761436400,49.2524365234375,-0.6379687786102295,1.9161467552185059,3.9513587951660156
1717011083801445000,49.29244506835938,-0.39603549242019653,0.1362137794494629,4.997360706329346
1717011083841453600,49.33245361328125,-1.4255609512329102,-0.33403539657592773,3.6977014541625977
1717011083881431600,49.372431640625,-1.7124191522598267,-0.5054411888122559,1.1133184432983398
1717011083931999200,49.42299926757813,-1.3102543354034424,-0.9700992107391357,-1.4545350074768066
1717011083972007700,49.46300756835937,0.45845893025398254,0.0097503662109375,-1.1107587814331055
1717011084032005000,49.52300512695312,0.07926934957504272,0.22693872451782227,-2.3068928718566895
1717011084092002800,49.5830029296875,-0.456021785736084,0.05580711364746094,-2.8617005348205566
1717011084152000500,49.64300048828125,-0.2730056047439575,-0.7549877166748047,-1.7305116653442383
1717011084211998000,49.702998046875,1.2420785427093506,-0.6792178153991699,0.05047798156738281
1717011084271995400,49.76299536132812,1.554763913154602,-1.1254873275756836,2.359076499938965
1717011084331993000,49.8229931640625,3.311171293258667,1.0368719100952148,2.303313732147217
1717011084391990500,49.88299047851562,3.4833872318267822,2.731755018234253,1.351041316986084
1717011084451988200,49.94298828125,3.8738255500793457,1.543081283569336,3.8243064880371094
1717011084511986000,50.00298583984375,5.6687726974487305,2.969022274017334,3.4794979095458984
1717011084571983400,50.0629833984375,5.586955547332764,3.761875629425049,1.354219913482666
1717011084631980800,50.12298071289062,5.120084762573242,4.187933921813965,2.2267160415649414
1717011084692009000,50.18300903320313,4.579357147216797,4.5087995529174805,3.722586154937744
1717011084752006400,50.24300634765625,4.025537967681885,4.196426868438721,4.5968756675720215
1717011084812004000,50.30300415039063,4.044506072998047,2.974669933319092,5.008586406707764
1717011084872001500,50.36300146484375,4.471989154815674,1.605318546295166,5.166823863983154
1717011084931999200,50.42299926757813,3.3111205101013184,2.051179885864258,3.7858405113220215
1717011084991996700,50.48299658203125,1.6963375806808472,2.4796953201293945,2.6908645629882812
1717011085051994000,50.542994140625,1.9749162197113037,-0.6147265434265137,3.0203871726989746
1717011085111991800,50.60299169921875,2.476977586746216,-0.1842665672302246,3.0182485580444336
1717011085171989500,50.66298950195313,1.732497215270996,0.3427438735961914,0.010522842407226562
1717011085231987200,50.7229873046875,-0.1554325819015503,0.31480979919433594,-1.4291281700134277
1717011085291984600,50.78298461914063,-0.885959804058075,-0.3052330017089844,-2.8484129905700684
1717011085351982000,50.84298217773438,-0.06920415163040161,-1.137298345565796,-3.3981332778930664
1717011085411979800,50.90297973632813,0.17261278629302979,-1.862865686416626,-2.248525619506836
1717011085472007700,50.96300756835937,0.4162479639053345,-2.5342512130737305,-0.3431739807128906
1717011085532005400,51.02300537109375,1.0069067478179932,1.1695404052734375,0.3545989990234375
1717011085592002800,51.0830029296875,0.3156771957874298,2.3117246627807617,1.8924379348754883
1717011085652000500,51.14300048828125,-0.14692950248718262,1.975876808166504,5.695652961730957
1717011085711998000,51.202998046875,1.63338041305542,3.7164618968963623,3.557750701904297
1717011085771995400,51.26299536132812,0.02736496925354004,4.258331298828125,1.3227462768554688
1717011085831993000,51.3229931640625,-0.5475789308547974,4.8302178382873535,3.776679515838623
1717011085891990500,51.38299047851562,0.20524200797080994,5.340310096740723,4.937518119812012
1717011085951988000,51.44298803710937,0.21035905182361603,4.9687628746032715,4.856263637542725
1717011086011985700,51.50298559570312,-0.35424524545669556,3.9326682090759277,5.502742290496826
1717011086071983400,51.5629833984375,1.2506380081176758,3.3771286010742188,5.652351379394531
1717011086131980800,51.62298071289062,2.07663631439209,3.2456612586975098,3.805513858795166
1717011086192009000,51.68300903320313,1.2121573686599731,2.9026122093200684,2.219421863555908
1717011086252006700,51.74300659179688,0.20805910229682922,1.2726950645446777,2.528054714202881
1717011086312004000,51.80300415039063,1.0888137817382812,1.376192569732666,3.124751091003418
1717011086372001500,51.86300146484375,0.5251706838607788,1.3758540153503418,0.21192455291748047
1717011086431999200,51.92299926757813,0.05365395545959473,0.04807090759277344,-1.2978801727294922
1717011086491996700,51.98299658203125,-0.5941475033760071,-0.32611703872680664,-1.729093074798584
1717011086551994000,52.042994140625,-1.4022890329360962,-1.39042329788208,-2.0578861236572266
1717011086611992000,52.10299194335938,-1.5373475551605225,-1.693793773651123,-1.9006071090698242
1717011086671989200,52.1629892578125,-1.2761667966842651,-2.5992705821990967,-1.2103362083435059
1717011086731987200,52.2229873046875,1.0036929845809937,0.14437103271484375,-1.2550387382507324
1717011086791984600,52.28298461914063,0.4415215253829956,1.7719957828521729,-0.1502819061279297
1717011086851982000,52.34298217773438,-0.3862473964691162,0.3434271812438965,3.222921848297119
1717011086911979800,52.40297973632813,0.47268855571746826,3.1563944816589355,4.838016033172607
1717011086972007700,52.46300756835937,0.3673214912414551,4.969025611877441,5.21207332611084
1717011087032005000,52.52300512695312,-1.7144356966018677,5.562887191772461,4.41288423538208
1717011087092002800,52.5830029296875,-0.6733869314193726,5.103886604309082,4.368694305419922
1717011087152000500,52.64300048828125,-0.8613214492797852,4.253227233886719,5.012548446655273
1717011087211998000,52.702998046875,-2.158116579055786,2.4564218521118164,4.366138458251953
1717011087271995400,52.76299536132812,-2.8868215084075928,1.572324275970459,2.564295768737793
1717011087331993000,52.8229931640625,-4.411312103271484,2.123971939086914,5.803102016448975
1717011087391990500,52.88299047851562,0.9396244287490845,2.7503933906555176,1.8247113227844238
1717011087451988200,52.94298828125,3.136409282684326,1.5744500160217285,3.463585376739502
1717011087511986000,53.00298583984375,0.023795485496520996,1.3931140899658203,3.5612354278564453
1717011087571983400,53.0629833984375,-0.7124565243721008,1.6169486045837402,2.6799731254577637
1717011087631981000,53.12298095703125,0.25311756134033203,1.0060267448425293,-0.11994743347167969
1717011087692009000,53.18300903320313,-0.08259320259094238,0.24559402465820312,-1.292191505432129
1717011087752006400,53.24300634765625,-0.06682813167572021,-0.4169955253601074,-2.202754497528076
1717011087812004000,53.30300415039063,-0.4215364456176758,-1.5979018211364746,-1.832000732421875
1717011087872001500,53.36300146484375,-1.4031388759613037,-1.3682427406311035,-1.0773649215698242
1717011087931999200,53.42299926757813,-1.6851087808609009,-0.6812982559204102,-0.12696361541748047
1717011087991996700,53.48299658203125,-0.02294480800628662,3.3277053833007812,-0.31060123443603516
1717011088051994000,53.542994140625,0.5005170106887817,1.665384292602539,3.760249614715576
1717011088111991800,53.60299169921875,-0.4592024087905884,3.2741641998291016,6.119388103485107
1717011088171989500,53.66298950195313,-0.4257385730743408,4.356712341308594,3.349419593811035
1717011088231987200,53.7229873046875,-1.2401394844055176,4.585881233215332,3.0789361000061035
1717011088291984600,53.78298461914063,-0.8417722582817078,5.168087005615234,4.33309268951416
1717011088351982000,53.84298217773438,-0.6339669227600098,4.404012680053711,3.740630626678467
1717011088411979800,53.90297973632813,0.24923956394195557,2.921243667602539,4.711592674255371
1717011088472007700,53.96300756835937,0.1601870059967041,1.670724868774414,4.8534955978393555
1717011088532005400,54.02300537109375,2.9735732078552246,-0.097259521484375,2.912987232208252
1717011088592002800,54.0830029296875,2.362112045288086,0.8812885284423828,0.46797847747802734
1717011088652000500,54.14300048828125,2.1635701656341553,-3.306997776031494,1.0118017196655273
1717011088711998000,54.202998046875,0.838861346244812,-3.248398542404175,2.1715946197509766
1717011088771995400,54.26299536132812,1.9422307014465332,-4.257811069488525,-4.107288360595703
1717011088831993000,54.3229931640625,-0.16661560535430908,-4.40826416015625,-5.989503383636475
1717011088891990500,54.38299047851562,-0.47780048847198486,-4.758904457092285,-2.4546027183532715
1717011088951988000,54.44298803710937,-0.5856517553329468,-4.881724834442139,-1.4996089935302734
1717011089011985700,54.50298559570312,-2.498124361038208,-3.845000743865967,-0.8704986572265625
1717011089051975000,54.542974853515624,-1.1691817045211792,-4.477333068847656,-0.7762527465820312
1717011089102542600,54.59354248046875,-0.84367436170578,-1.9863367080688477,0.17327499389648438
1717011089142520600,54.6335205078125,0.04473400115966797,0.5991995334625244,-0.8429813385009766
1717011089182529300,54.673529296875,-0.7372241020202637,1.0363752841949463,-0.7848682403564453
1717011089222537700,54.71353784179688,-0.30221128463745117,-0.39534807205200195,1.1975908279418945
1717011089262515700,54.753515625,-1.00121009349823,0.5203580856323242,2.804780960083008
1717011089302524400,54.7935244140625,-1.0757675170898438,1.4967679977416992,2.0515804290771484
1717011089342532600,54.83353271484375,-0.8906581401824951,1.9604403972625732,1.3121156692504883
1717011089382541300,54.873541259765624,-1.0987234115600586,2.1437506675720215,0.921177864074707
1717011089422519300,54.913519287109374,-1.040703296661377,1.8457045555114746,1.4605989456176758
1717011089462528000,54.95352807617188,-1.5817612409591675,1.8874156475067139,2.0907716751098633
1717011089502536400,54.993536376953124,-0.9762094616889954,1.8883025646209717,2.1043596267700195
1717011089542514400,55.033514404296874,-0.7467337846755981,1.6485023498535156,1.891347885131836
1717011089582523100,55.07352319335938,0.6809083223342896,0.15232419967651367,2.1296653747558594
1717011089622531600,55.113531494140624,0.20864689350128174,-0.502192497253418,3.1572113037109375
1717011089662540000,55.1535400390625,1.0115303993225098,-1.3726162910461426,2.5724172592163086
1717011089702518300,55.19351831054688,3.283768653869629,-2.154546022415161,1.5666122436523438
1717011089742526700,55.233526611328124,3.576965570449829,-0.7805626392364502,0.20545101165771484
1717011089782535200,55.27353515625,2.8029799461364746,-1.2238430976867676,-0.70367431640625
1717011089822513200,55.31351318359375,1.3034149408340454,-3.6321780681610107,-0.7339792251586914
1717011089862521900,55.35352197265625,0.7221481800079346,-4.33870792388916,0.5945415496826172
1717011089902530300,55.3935302734375,2.3576784133911133,-3.766538619995117,0.8645591735839844
1717011089942538800,55.433538818359374,2.650683641433716,-3.597181558609009,-0.7300081253051758
1717011089982517000,55.47351708984375,1.4607641696929932,-3.954305648803711,-1.7247180938720703
1717011090022525200,55.513525146484376,1.1713052988052368,-4.47042989730835,-3.1093316078186035
1717011090062534000,55.553533935546874,1.1680653095245361,-5.038085460662842,-4.062571048736572
1717011090102542600,55.59354248046875,1.070522665977478,-5.349780559539795,-4.072649002075195
1717011090142520600,55.6335205078125,-0.3435872197151184,-5.688002586364746,-3.2275800704956055
1717011090182529300,55.673529296875,-0.276720255613327,-6.255672454833984,-2.7263922691345215
1717011090222537700,55.71353784179688,0.8607470989227295,-6.507327556610107,-1.0643529891967773
1717011090262515700,55.753515625,1.670943021774292,-6.329808712005615,-1.0464410781860352
1717011090302524400,55.7935244140625,1.7965631484985352,-4.5629706382751465,-1.4810104370117188
1717011090342532600,55.83353271484375,1.717217206954956,-2.40401029586792,-2.265061855316162
1717011090382541300,55.873541259765624,0.6913549900054932,-1.841867446899414,-1.397176742553711
1717011090422519300,55.913519287109374,0.9989917278289795,-2.7967476844787598,1.079564094543457
1717011090462528000,55.95352807617188,0.5914613008499146,-1.9612786769866943,2.8994789123535156
1717011090502536400,55.993536376953124,0.4162970781326294,0.1093754768371582,2.2299394607543945
1717011090543125000,56.034125,0.13241291046142578,1.3962256908416748,0.6510190963745117
1717011090583133200,56.07413330078125,-0.4194026291370392,0.6096761226654053,-0.28774070739746094
1717011090643131000,56.134130859375,0.2716869115829468,0.9226062297821045,1.118443489074707
1717011090703128300,56.19412841796875,0.3196130394935608,1.5004186630249023,1.7002677917480469
1717011090763126000,56.2541259765625,0.7785995602607727,0.41462039947509766,1.9688701629638672
1717011090823123500,56.31412353515625,1.0497634410858154,-0.23466014862060547,3.657223701477051
1717011090883121200,56.37412109375,1.1585276126861572,-0.7389469146728516,3.2396764755249023
1717011090943118800,56.43411889648438,1.1734224557876587,-0.1633303165435791,0.8915996551513672
1717011091003116300,56.4941162109375,0.9779508113861084,-3.340200424194336,0.4156465530395508
1717011091063113700,56.55411376953125,1.8174715042114258,-5.563243389129639,2.195431709289551
1717011091123111400,56.614111328125,1.2951549291610718,-5.142199993133545,1.1134395599365234
1717011091183108900,56.67410888671875,2.204087734222412,-6.131997108459473,-1.3270225524902344
1717011091243106600,56.7341064453125,0.46222472190856934,-5.100923538208008,-2.6810226440429688
1717011091303134500,56.794134521484374,0.2395838499069214,-6.017629146575928,-4.012933254241943
1717011091363132200,56.854132080078124,1.0121806859970093,-7.027105808258057,-4.673628330230713
1717011091423129900,56.9141298828125,1.1174352169036865,-8.227020263671875,-2.928504467010498
1717011091483127000,56.974126953125,2.543534278869629,-5.7899909019470215,-3.3493337631225586
1717011091543125000,57.034125,1.9957091808319092,-4.460507869720459,-2.7104883193969727
1717011091603122400,57.094122314453124,1.5069453716278076,-5.32927942276001,0.5398416519165039
1717011091663120100,57.1541201171875,1.2841150760650635,-2.8977558612823486,0.8840093612670898
1717011091723117600,57.21411767578125,1.3905465602874756,-0.6967973709106445,1.1629772186279297
1717011091783115000,57.274114990234374,1.4224153757095337,1.155271053314209,3.608517646789551
1717011091843112700,57.33411279296875,2.2101666927337646,4.069611072540283,7.153275966644287
1717011091903110100,57.394110107421874,1.5658347606658936,5.091577529907227,5.332764148712158
1717011091963107800,57.45410791015625,1.297890543937683,5.069403648376465,5.209371089935303
1717011092023105300,57.514105224609374,1.5219652652740479,3.7498269081115723,6.930466175079346
1717011092083133400,57.57413354492188,0.33616435527801514,4.544356346130371,5.925336837768555
1717011092143131000,57.634130859375,0.1784113049507141,1.0436797142028809,4.109658241271973
1717011092203128300,57.69412841796875,-0.07950431108474731,-2.0966076850891113,4.7437849044799805
1717011092263126300,57.75412622070313,1.2819582223892212,-3.774186849594116,4.3101959228515625
1717011092323123700,57.81412377929688,1.6372522115707397,-4.722282886505127,0.8376665115356445
1717011092383121200,57.87412109375,1.6820085048675537,-5.85188102722168,-1.93341064453125
1717011092443118800,57.93411889648438,0.6222732663154602,-6.378239154815674,-4.549825191497803
1717011092503116300,57.9941162109375,0.7191296815872192,-7.045895576477051,-5.465319633483887
1717011092563113700,58.05411376953125,0.902381420135498,-6.767514228820801,-4.330264091491699
1717011092623111400,58.114111328125,0.9340496063232422,-6.574722766876221,-2.580901622772217
1717011092683108900,58.17410888671875,1.3640162944793701,-4.73534631729126,-3.1324501037597656
1717011092743106600,58.2341064453125,0.24751931428909302,-4.876341819763184,-1.902061939239502
1717011092803134500,58.294134521484374,1.3035277128219604,-5.846660614013672,1.0993824005126953
1717011092863132200,58.354132080078124,2.1650516986846924,-2.4867405891418457,2.455423355102539
1717011092923129600,58.414129638671874,1.3457751274108887,0.3064737319946289,3.1329002380371094
1717011092983127300,58.474127197265624,0.9644611477851868,2.0809316635131836,4.585202217102051
1717011093043124700,58.534124755859374,0.8780027031898499,3.785534381866455,4.004920482635498
1717011093103122400,58.594122314453124,1.2436732053756714,4.259910583496094,3.6220664978027344
1717011093163120000,58.6541201171875,1.1655646562576294,4.627208709716797,6.260851860046387
1717011093223117600,58.71411767578125,0.9189187288284302,3.651888132095337,7.8719658851623535
1717011093283115000,58.774114990234374,0.11812252551317215,3.504809856414795,4.367635726928711
1717011093343112700,58.83411279296875,0.9471195936203003,1.145240306854248,1.4076614379882812
1717011093403110100,58.894110107421874,0.922925591468811,-2.4341135025024414,1.064779281616211
1717011093463107600,58.954107666015624,-0.11214813590049744,-2.887631416320801,1.9518623352050781
1717011093523105300,59.014105224609374,-0.6409720778465271,-2.376051664352417,0.8645610809326172
1717011093583133400,59.07413354492188,0.6918196678161621,-3.598827362060547,-1.0603609085083008
1717011093643131000,59.134130859375,0.9487877488136292,-4.744241714477539,-2.5966334342956543
1717011093703128300,59.19412841796875,-0.9849041700363159,-6.084012031555176,-3.589238166809082
1717011093763126000,59.2541259765625,0.0483662486076355,-5.848217487335205,-3.3719797134399414
1717011093823123500,59.31412353515625,0.7882862091064453,-6.6355299949646,-2.9185853004455566
1717011093883121200,59.37412109375,0.16014325618743896,-4.074240207672119,-3.45182466506958
1717011093943118800,59.43411889648438,1.2863327264785767,-4.245792388916016,-1.7606806755065918
1717011094003116300,59.4941162109375,1.3390216827392578,-3.6203746795654297,1.0203619003295898
1717011094063113700,59.55411376953125,1.6036854982376099,-1.3649652004241943,0.21311569213867188
1717011094123111400,59.614111328125,1.9443005323410034,0.027736663818359375,1.1405229568481445
1717011094183108900,59.67410888671875,1.2100344896316528,1.5352783203125,1.5193696022033691
1717011094243106600,59.7341064453125,2.283344268798828,3.4911582469940186,5.276536464691162
1717011094303134500,59.794134521484374,3.284433364868164,4.468988418579102,6.417625904083252
1717011094363132200,59.854132080078124,1.5176286697387695,3.7146518230438232,6.12506103515625
1717011094423129600,59.914129638671874,1.0659873485565186,4.4272027015686035,5.877660751342773
1717011094483127000,59.974126953125,0.9361158609390259,3.733982563018799,2.230821132659912
1717011094543125000,60.034125,0.1992144137620926,2.0490217208862305,2.36726713180542
1717011094603122400,60.094122314453124,-1.8651034832000732,-0.8897838592529297,3.429274559020996
1717011094663120100,60.1541201171875,-2.375152826309204,-2.185758113861084,3.034090042114258
1717011094723117600,60.21411767578125,-1.7247726917266846,-2.070651054382324,0.023138999938964844
1717011094783115000,60.274114990234374,-1.281699299812317,-2.752469539642334,-1.8405237197875977
1717011094843112700,60.33411279296875,-1.187608242034912,-2.703601121902466,-2.7932372093200684
1717011094903110100,60.394110107421874,-0.9479817152023315,-3.0651955604553223,-3.99453067779541
1717011094963107800,60.45410791015625,-0.23327624797821045,-3.7181835174560547,-3.936192035675049
1717011095023105300,60.514105224609374,-0.1929541826248169,-4.051052093505859,-1.7623867988586426
1717011095083133400,60.57413354492188,1.466172695159912,-4.7505645751953125,0.1339893341064453
1717011095143131000,60.634130859375,3.9864306449890137,-2.012089967727661,-1.1507701873779297
1717011095203128300,60.69412841796875,2.279771089553833,-3.0888445377349854,0.4743661880493164
1717011095263126300,60.75412622070313,2.7994163036346436,-2.3165793418884277,0.7046451568603516
1717011095323123700,60.81412377929688,4.1038055419921875,-0.6838979721069336,-0.6123504638671875
1717011095383121200,60.87412109375,3.104249954223633,0.17566776275634766,0.2419452667236328
1717011095443118800,60.93411889648438,1.8619921207427979,0.9385294914245605,0.09047508239746094
1717011095503116300,60.9941162109375,0.4798705577850342,1.6093378067016602,1.9331588745117188
1717011095563114000,61.05411401367188,0.5849542617797852,2.943650007247925,4.214504718780518
1717011095623111400,61.114111328125,-1.522996187210083,2.1946592330932617,5.163172245025635
1717011095663072800,61.15407275390625,-1.2043284177780151,2.775808811187744,4.952622413635254
1717011095703080400,61.19408056640625,-1.2502113580703735,3.084472417831421,3.607593536376953
1717011095743639000,61.23463916015625,-1.5695592164993286,2.6188676357269287,3.1003599166870117
1717011095783647700,61.274647705078124,-3.130065679550171,3.101714611053467,2.913809299468994
1717011095823656200,61.31465625,-4.562766075134277,2.536813497543335,2.8410072326660156
1717011095863634400,61.35463452148438,-5.708765506744385,0.3924441337585449,2.938394069671631
1717011095903643000,61.394642822265624,-5.197249412536621,-0.9785871505737305,4.387840270996094
1717011095943651300,61.4346513671875,-4.673007488250732,-1.183565616607666,3.707554817199707
1717011095983660000,61.474659912109374,-4.0284247398376465,-1.8680169582366943,1.8122987747192383
1717011096023638000,61.514637939453124,-3.827307939529419,-2.13565993309021,0.4134988784790039
1717011096063646500,61.554646484375,-4.1988043785095215,-2.19806170463562,-0.6817917823791504
1717011096103655000,61.594655029296874,-4.944674968719482,-2.3033735752105713,-1.7199664115905762
1717011096143633200,61.634633056640624,-4.957888603210449,-2.3752846717834473,-2.4653711318969727
1717011096183641600,61.6746416015625,-4.203189849853516,-2.962217330932617,-2.9182682037353516
1717011096223650000,61.714650146484374,-4.0894622802734375,-3.555361747741699,-2.544806957244873
1717011096263658800,61.75465869140625,-3.874807834625244,-3.2729079723358154,-1.1118888854980469
1717011096303636700,61.79463671875,-4.53240966796875,-4.180705547332764,0.4302177429199219
1717011096343645200,61.834645263671874,-3.531087636947632,-4.601100921630859,0.3515157699584961
1717011096383654000,61.87465380859375,-2.231661796569824,0.018468379974365234,-0.7033247947692871
1717011096423632000,61.9146318359375,-1.423511028289795,-0.02036571502685547,-0.6680498123168945
1717011096463640300,61.954640380859374,-2.630937337875366,-0.40178728103637695,1.361912727355957
1717011096503649000,61.99464892578125,-3.431725025177002,-0.29964447021484375,2.947554588317871
1717011096543657500,62.034657470703124,-1.48580801486969,1.1810669898986816,1.9196357727050781
1717011096583635700,62.0746357421875,-0.12220573425292969,2.3406295776367188,0.8177332878112793
1717011096623644000,62.114643798828126,0.9098951816558838,3.009450674057007,1.047806739807129
1717011096663652600,62.154652587890624,-0.9392106533050537,3.4600491523742676,2.825408935546875
1717011096704210400,62.19521044921875,-2.2407877445220947,4.160058975219727,4.569139003753662
1717011096744219000,62.235218994140624,-2.357245683670044,4.465416431427002,5.693418025970459
1717011096804216600,62.295216552734374,-1.3748927116394043,4.314090728759766,6.635348796844482
1717011096864214000,62.355214111328124,-0.05365955829620361,3.3458986282348633,5.630245685577393
1717011096924211700,62.415211669921874,0.8362431526184082,3.5056004524230957,4.367437362670898
1717011096984209200,62.475209228515624,-1.7880632877349854,3.6192626953125,2.848512649536133
1717011097044206800,62.535206787109374,-1.3085291385650635,-0.043964385986328125,3.5723471641540527
1717011097104204300,62.595204345703124,-1.3549580574035645,-0.618471622467041,4.273334503173828
1717011097164201700,62.65520166015625,-1.3928097486495972,-0.5848150253295898,1.2447624206542969
1717011097224199400,62.715199462890624,-1.090810775756836,-0.5329666137695312,-1.122560977935791
1717011097284197000,62.775197021484374,-1.336701512336731,-1.3767309188842773,-2.5878257751464844
1717011097344194800,62.83519482421875,-1.4271470308303833,-2.3993380069732666,-3.3779449462890625
1717011097404192300,62.895192138671874,-1.851183533668518,-2.689500570297241,-2.622162342071533
1717011097464220200,62.95522021484375,-1.4210400581359863,-3.4094462394714355,-1.4496049880981445
1717011097524217900,63.0152177734375,0.22183412313461304,0.20781874656677246,-2.221485137939453
1717011097584215300,63.07521533203125,0.41996586322784424,-1.003687858581543,-0.5646824836730957
1717011097644213000,63.135212890625,-1.5330467224121094,-0.18154287338256836,3.135542869567871
1717011097704210400,63.19521044921875,-0.6308938264846802,1.9698257446289062,2.2699623107910156
1717011097764208000,63.2552080078125,-0.22279930114746094,2.85379695892334,2.512993335723877
1717011097824205600,63.31520556640625,-0.6742398738861084,3.872887372970581,4.05413293838501
1717011097884203000,63.375203125,-0.7234370708465576,5.218724250793457,5.04440450668335
1717011097944201000,63.43520092773438,-1.050760269165039,5.042028427124023,6.003103256225586
1717011098004198400,63.49519848632813,-0.7815571427345276,4.408312797546387,7.000113487243652
1717011098064195800,63.55519580078125,0.7109403610229492,3.0781545639038086,5.858977317810059
1717011098124193500,63.61519360351563,1.3151447772979736,4.113012313842773,4.196752071380615
1717011098184191000,63.67519091796875,0.6197140216827393,1.0962271690368652,3.138141632080078
1717011098244219000,63.735218994140624,-0.3435249328613281,-0.22751474380493164,4.33486270904541
1717011098304216600,63.795216552734374,-1.0994986295700073,-0.2809152603149414,2.887906551361084
1717011098364214300,63.85521435546875,-0.9213345050811768,-1.3448114395141602,-0.027851104736328125
1717011098424211700,63.915211669921874,-0.7251654863357544,-0.2947063446044922,-1.2589912414550781
1717011098484209200,63.975209228515624,-0.5478605031967163,-1.1864948272705078,-2.781890869140625
1717011098544206800,64.03520678710937,-0.5305752158164978,-2.453948736190796,-4.045332908630371
1717011098604204300,64.09520434570312,-0.8484047651290894,-2.3379909992218018,-2.736844062805176
1717011098664201700,64.15520166015625,0.09014832973480225,-1.6704988479614258,-1.8237552642822266
1717011098724199400,64.21519946289062,0.2404998540878296,-0.07551097869873047,-0.0911569595336914
1717011098784196900,64.27519677734375,0.5122213363647461,-0.5355143547058105,2.5864462852478027
1717011098844194600,64.33519458007812,-0.548724353313446,1.8853168487548828,2.5802669525146484
1717011098904192300,64.39519213867187,-0.5253775715827942,3.121161460876465,3.380063533782959
1717011098964220400,64.45522045898437,0.02859938144683838,4.040173053741455,5.473180294036865
1717011099024217900,64.5152177734375,0.10253250598907471,5.6486711502075195,7.611649513244629
1717011099084215300,64.57521533203125,-0.6515004634857178,5.507288455963135,7.415736675262451
1717011099144213000,64.635212890625,-0.32392215728759766,5.466053009033203,8.504636764526367
1717011099204210400,64.69521044921875,0.5432741641998291,4.178469181060791,8.752527236938477
1717011099264208100,64.7552080078125,0.19026422500610352,6.476226806640625,6.744772434234619
1717011099324205600,64.81520556640625,0.31506532430648804,3.4120802879333496,5.200198173522949
1717011099384203000,64.875203125,-0.8713377118110657,0.9766330718994141,5.561219215393066
1717011099444200700,64.93520068359375,-0.11483144760131836,0.6391077041625977,4.0775675773620605
1717011099504198100,64.9951982421875,0.06606149673461914,0.2687644958496094,0.6394028663635254
1717011099564195800,65.05519580078125,-0.17343634366989136,-0.17073583602905273,-1.0251684188842773
1717011099624193500,65.11519360351562,-1.1531648635864258,-0.9563860893249512,-2.648848056793213
1717011099684191000,65.17519091796875,-0.21638140082359314,-2.1250510215759277,-2.968881130218506
1717011099744219000,65.23521899414062,-0.4142756462097168,-1.8305134773254395,-2.3534226417541504
1717011099804216600,65.29521655273437,-0.3749842345714569,-1.7400336265563965,-1.419081687927246
1717011099864214000,65.35521411132812,1.1830458641052246,0.7169313430786133,-0.14583063125610352
1717011099924211700,65.41521166992187,2.8009471893310547,-0.27869176864624023,0.835871696472168
1717011099984209200,65.47520922851562,1.4825235605239868,1.3157291412353516,3.3132810592651367
1717011100044206800,65.53520678710937,1.993605375289917,3.6807894706726074,4.957048416137695
1717011100104204300,65.59520434570312,3.3700077533721924,4.880972862243652,7.126049041748047
1717011100164201700,65.65520166015625,3.6180315017700195,5.280661106109619,6.619289398193359
1717011100224199400,65.71519946289062,3.8048813343048096,5.214977264404297,6.346718788146973
1717011100284197000,65.77519702148437,5.162257194519043,5.058904647827148,8.508787155151367
1717011100344194800,65.83519482421875,3.2681097984313965,4.3009724617004395,8.581085205078125
1717011100404192300,65.89519213867187,2.3520169258117676,5.559928894042969,6.856437683105469
1717011100464220200,65.95522021484375,2.0225350856781006,2.8308939933776855,4.806502819061279
1717011100524217900,66.0152177734375,1.5183309316635132,0.5416345596313477,4.920819282531738
1717011100584215300,66.07521533203125,2.322495698928833,0.21498394012451172,3.1301159858703613
1717011100644213000,66.135212890625,2.174562931060791,-0.14806270599365234,1.2791242599487305
1717011100704210400,66.19521044921875,1.4010071754455566,-0.857783317565918,0.08162879943847656
1717011100764208000,66.2552080078125,1.657086730003357,-0.8971762657165527,-1.2763113975524902
1717011100824205600,66.31520556640625,2.0812127590179443,-2.099787712097168,-2.336813449859619
1717011100884203000,66.375203125,2.2420172691345215,-1.8889894485473633,-2.8147964477539062
1717011100944201000,66.43520092773437,2.8644609451293945,-2.4908266067504883,-1.8952364921569824
1717011101004198400,66.49519848632812,3.2313499450683594,-1.5536582469940186,-1.3713159561157227
1717011101064195800,66.55519580078125,5.717507839202881,-1.4501876831054688,-0.5034060478210449
1717011101124193500,66.61519360351562,5.701321601867676,-2.2882156372070312,2.0424537658691406
1717011101184191000,66.67519091796875,3.735018253326416,1.2163708209991455,1.4046573638916016
1717011101244219100,66.73521923828125,4.941978454589844,1.2003483772277832,1.347292423248291
1717011101304216600,66.79521655273437,5.862656593322754,0.9800639152526855,2.4776697158813477
1717011101364214300,66.85521435546875,5.896205425262451,2.088704824447632,3.0370631217956543
1717011101424211700,66.91521166992187,5.481778144836426,1.9974889755249023,3.872372627258301
1717011101484209200,66.97520922851562,4.475881099700928,2.0572590827941895,4.843535423278809
1717011101544206800,67.03520678710937,4.944759845733643,1.1508245468139648,4.4482855796813965
1717011101604204300,67.09520434570312,4.082961559295654,2.5658650398254395,2.2690343856811523
1717011101664202000,67.15520190429687,1.5355950593948364,-1.2961773872375488,3.344367027282715
1717011101724199400,67.21519946289062,4.587569236755371,-2.9985411167144775,2.0325937271118164
1717011101784196900,67.27519677734375,4.288025856018066,-3.5349843502044678,-0.6309032440185547
1717011101824249300,67.31524926757812,2.4483208656311035,-3.996823310852051,-1.1377277374267578
1717011101864257000,67.35525708007812,1.364863395690918,-4.352945804595947,-1.512974739074707
1717011101904815900,67.39581591796875,0.49979305267333984,-4.033054351806641,-1.5110807418823242
1717011101944824300,67.43582421875,2.5448527336120605,-4.0616607666015625,-2.621762275695801
1717011101984833000,67.4758330078125,3.262312412261963,-4.880494117736816,-3.5728979110717773
1717011102024810800,67.51581079101562,2.0241916179656982,-4.867739677429199,-4.056738376617432
1717011102064819500,67.5558193359375,1.1374765634536743,-3.862380027770996,-3.463705062866211
1717011102104828000,67.59582788085937,0.9101564884185791,-4.79853630065918,-2.345766067504883
1717011102144836400,67.63583642578125,2.8822755813598633,-5.934861183166504,-1.4406609535217285
1717011102184814600,67.67581469726562,4.781527519226074,-2.6334352493286133,-0.009070396423339844
1717011102224823000,67.71582299804687,6.224175453186035,-3.0708937644958496,0.21171092987060547
1717011102264831700,67.75583178710937,5.3046979904174805,-3.8544089794158936,0.35134029388427734
1717011102304809700,67.79580981445312,2.161733627319336,-2.4925217628479004,0.4742898941040039
1717011102344818200,67.83581811523437,2.6590123176574707,-1.299795389175415,-0.9570350646972656
1717011102384827000,67.87582690429687,3.955946683883667,-0.489208459854126,-0.38292980194091797
1717011102424835300,67.91583544921875,4.775120735168457,0.43777942657470703,0.6784830093383789
1717011102464813300,67.95581323242187,5.41520881652832,1.6984546184539795,2.573873519897461
1717011102504821800,67.99582177734375,5.268799781799316,2.8085708618164062,4.851566314697266
1717011102544830500,68.03583056640625,4.486158847808838,2.548675537109375,5.646821975708008
1717011102584808400,68.07580834960937,4.407083511352539,0.6749701499938965,3.82614803314209
1717011102624817000,68.11581689453125,5.282270431518555,-0.05651521682739258,3.390650749206543
1717011102664825600,68.15582568359375,5.372960090637207,0.6468932628631592,2.1649274826049805
1717011102704834000,68.195833984375,5.3329691886901855,0.5094428062438965,0.9086971282958984
1717011102744812000,68.23581201171875,3.126159906387329,-0.9370405673980713,1.2274913787841797
1717011102784820700,68.27582080078125,3.1084353923797607,-3.139681816101074,1.039158821105957
1717011102824829200,68.3158291015625,2.9961507320404053,-2.968081474304199,2.5547609329223633
1717011102865387000,68.35638696289062,2.8464295864105225,-3.7227120399475098,0.7102737426757812
1717011102905395500,68.3963955078125,5.280664920806885,-4.41411828994751,-0.3915252685546875
1717011102965393200,68.45639306640625,4.617319107055664,-5.168149471282959,-0.5609893798828125
1717011103025390800,68.51639086914062,1.6849545240402222,-5.131882190704346,-1.5097346305847168
1717011103085388300,68.57638818359375,1.9637762308120728,-5.864342212677002,-1.6929121017456055
1717011103145385700,68.6363857421875,1.533583164215088,-5.692351341247559,-2.756657600402832
1717011103205383400,68.69638354492187,2.5087382793426514,-7.17076301574707,-2.294367790222168
1717011103265381000,68.75638110351562,4.559324741363525,-5.0544538497924805,-2.28956937789917
1717011103325378600,68.81637866210937,4.447886943817139,-3.7305331230163574,-1.833467960357666
1717011103385376000,68.8763759765625,4.0788164138793945,-5.769624710083008,1.9784927368164062
1717011103445373700,68.93637377929687,6.189305305480957,-2.890237808227539,1.9069995880126953
1717011103505371100,68.99637109375,5.266618251800537,-1.2086029052734375,0.4115180969238281
1717011103565368600,69.05636865234375,4.708224296569824,-0.8685846328735352,0.8892326354980469
1717011103625397000,69.11639697265625,6.170100212097168,0.667443037033081,2.38077449798584
1717011103685394400,69.17639453125,4.524885177612305,1.7028288841247559,4.257207870483398
1717011103745392000,69.23639208984375,3.804016590118408,1.436497688293457,4.786826133728027
1717011103805389600,69.2963896484375,5.3593573570251465,1.4106838703155518,3.7216081619262695
1717011103865387000,69.35638696289062,4.62885856628418,0.39905214309692383,1.8563613891601562
