time,seconds_elapsed,z,y,x
1717011034562616300,0.0536162109375,0.01710422709584236,0.1411098688840866,-0.009773843921720982
1717011034602626800,0.093626708984375,0.01710422709584236,0.1411098688840866,-0.009773843921720982
1717011034642610400,0.1336103515625,-1.2412781715393066,-1.804495930671692,1.8613064289093018
1717011034682617900,0.173617919921875,-2.345111608505249,-2.9468140602111816,0.8692612648010254
1717011034722627000,0.213626953125,-2.9584202766418457,-0.5907067060470581,-0.16859880089759827
1717011034762607400,0.253607421875,-2.4251351356506348,-0.9474520087242126,-0.6707300543785095
1717011034802611000,0.29361083984375,-0.6017022728919983,-0.9450085163116455,0.20036379992961884
1717011034842622700,0.333622802734375,0.27122417092323303,-1.2522737979888916,0.4086688458919525
1717011034882630700,0.373630615234375,-0.34208452701568604,-1.9431623220443726,-0.44104471802711487
1717011034922606300,0.4136064453125,-1.0482447147369385,-2.464841365814209,-1.1343767642974854
1717011034962617300,0.453617431640625,-1.1533136367797852,-1.5063936710357666,0.8246681094169617
1717011035002626600,0.49362646484375,-1.777006983757019,-3.235142230987549,1.50211763381958
1717011035042631400,0.53363134765625,-1.5076154470443726,-2.5143213272094727,1.3396275043487549
1717011035082612500,0.573612548828125,-1.6829338073730469,-2.2540926933288574,1.0421360731124878
1717011035122621000,0.613620849609375,-1.6725490093231201,-1.2962560653686523,0.1612684279680252
1717011035162627000,0.653626953125,-1.8301522731781006,-0.05314527451992035,-0.5400048494338989
1717011035202608000,0.693608154296875,-1.3548991680145264,-0.5748242139816284,-0.02626720629632473
1717011035242616000,0.733615966796875,-1.330464482307434,-1.7739527225494385,0.5589417219161987
1717011035282623700,0.773623779296875,-1.2412781715393066,-2.0971004962921143,0.45265114307403564
1717011035322633700,0.8136337890625,-1.4049900770187378,-1.500285029411316,0.05803219974040985
1717011035362611700,0.85361181640625,-1.0073168277740479,-2.2369885444641113,-0.024434609338641167
1717011035402616600,0.893616455078125,-0.26939156651496887,-2.869234085083008,0.3781255781650543
1717011035442629400,0.93362939453125,0.09773843735456467,-2.3023509979248047,0.9010262489318848
1717011035482608600,0.973608642578125,0.9071348905563354,-3.5020904541015625,0.6291912198066711
1717011035522611700,1.01361181640625,1.6468926668167114,-4.1972551345825195,-0.08735372871160507
1717011035562625500,1.05362548828125,2.0079140663146973,-2.4049763679504395,-1.1808024644851685
1717011035602632000,1.0936318359375,2.6028966903686523,-2.7843236923217773,-0.827722430229187
1717011035642607000,1.133607177734375,2.778215169906616,-2.4013113975524902,-0.5222898125648499
1717011035682618600,1.17361865234375,2.93154239654541,-1.3933836221694946,-1.0525208711624146
1717011035722627000,1.213626953125,3.3457088470458984,-0.4599815309047699,-2.1068742275238037
1717011035762602200,1.253602294921875,2.9358184337615967,0.22663100063800812,-2.291966438293457
1717011035802613800,1.29361376953125,2.504547595977783,0.5546656250953674,-2.3164010047912598
1717011035842622500,1.33362255859375,2.2125539779663086,0.5015203952789307,-2.263866662979126
1717011035882627600,1.373627685546875,1.8460347652435303,0.4660901725292206,-1.8509217500686646
1717011035922609000,1.41360888671875,1.6114624738693237,0.2779437005519867,-1.528384804725647
1717011035962617300,1.453617431640625,1.2424999475479126,0.22113321721553802,-1.3432927131652832
1717011036002622700,1.493622802734375,1.037249207496643,0.22357667982578278,-1.091616153717041
1717011036042634000,1.533634033203125,0.8503243923187256,-0.20952677726745605,-0.9834930300712585
1717011036082612500,1.573612548828125,0.44287729263305664,0.303600013256073,-1.0378600358963013
1717011036122618000,1.6136181640625,-0.3897320330142975,0.49357911944389343,-0.5479460954666138
1717011036162629400,1.65362939453125,-0.7849618196487427,-0.08552113175392151,0.21868975460529327
1717011036202607000,1.693607177734375,-0.7611380815505981,-0.32681289315223694,0.34147366881370544
1717011036242613000,1.733613037109375,-1.189354658126831,-0.018325956538319588,0.16432274878025055
1717011036282624800,1.773624755859375,-1.511891484260559,0.1459967941045761,0.2620611786842346
1717011036322633200,1.81363330078125,-1.6584991216659546,0.024434609338641167,0.41722095012664795
1717011036362608400,1.8536083984375,-1.7415767908096313,-0.02932153269648552,0.6310238242149353
1717011036402620000,1.893619873046875,-1.700037956237793,0.06536258012056351,0.646906316280365
1717011036442628400,1.93362841796875,-1.6633861064910889,0.18570303916931152,0.5931501388549805
1717011036482603300,1.973603271484375,-1.513113260269165,0.12034045159816742,0.394618958234787
1717011036522614800,2.01361474609375,-1.1850786209106445,0.04642575979232788,0.1062905490398407
1717011036562623700,2.053623779296875,-0.807563841342926,0.5174028873443604,0.09957103431224823
1717011036602629000,2.093629150390625,-0.7941248416900635,0.6676757335662842,0.5619960427284241
1717011036642609700,2.133609619140625,-0.656069278717041,0.3634648323059082,1.214400053024292
1717011036682618400,2.173618408203125,-0.618195652961731,-0.2669481039047241,1.4978415966033936
1717011036722626000,2.2136259765625,-0.342695415019989,-0.47280970215797424,1.2113457918167114
1717011036762605000,2.25360498046875,0.5021312236785889,-0.3274237811565399,0.6517932415008545
1717011036802613500,2.293613525390625,0.6835582256317139,-0.37079519033432007,0.5717698931694031
1717011036842619400,2.333619384765625,0.5876523852348328,-0.48685958981513977,0.8362745046615601
1717011036882630700,2.373630615234375,0.5687155723571777,-0.304210901260376,0.9871582388877869
1717011036922608600,2.413608642578125,0.5222898125648499,-0.10567969083786011,0.7819074988365173
1717011036962616300,2.4536162109375,0.7843509912490845,0.03298672288656235,0.41111230850219727
1717011037002628000,2.493628173828125,1.3445143699645996,0.1111774742603302,-0.11972958594560623
1717011037042636500,2.533636474609375,1.6279559135437012,-0.13988813757896423,-0.5100724697113037
1717011037082609700,2.573609619140625,1.9816468954086304,-0.05497787147760391,-0.7330383062362671
1717011037122621200,2.61362109375,1.7330247163772583,0.11239920556545258,-0.8491026759147644
1717011037162629000,2.653629150390625,0.9065240025520325,-0.4245513379573822,-0.6792821288108826
1717011037202604300,2.693604248046875,1.3506230115890503,-0.32620203495025635,-0.8491026759147644
1717011037242615800,2.73361572265625,1.1227703094482422,0.9138544201850891,-1.0115928649902344
1717011037282624500,2.77362451171875,0.36163222789764404,1.0586295127868652,-0.8674286603927612
1717011037322630100,2.813630126953125,0.4355469346046448,0.19058994948863983,-0.2724458873271942
1717011037362611500,2.853611572265625,0.9364564418792725,-0.2480112910270691,-0.252287358045578
1717011037402619600,2.89361962890625,0.6407976150512695,0.11789698898792267,-0.21502456068992615
1717011037442625500,2.93362548828125,-0.04581489413976669,0.14905111491680145,0.12339477986097336
1717011037482606000,2.973606201171875,-0.13744467496871948,-0.29138273000717163,0.543059229850769
1717011037522614800,3.01361474609375,-0.3933972120285034,-0.7128797173500061,0.6731734871864319
1717011037562620200,3.0536201171875,-0.6505714654922485,-0.43127086758613586,0.3781255781650543
1717011037602632000,3.0936318359375,-0.9358455538749695,-0.001832595793530345,0.07269296050071716
1717011037642610000,3.13360986328125,-1.0708467960357666,0.027488935738801956,0.2535090744495392
1717011037682615600,3.173615478515625,-1.0122036933898926,-0.0403171069920063,0.617584764957428
1717011037722627000,3.213626953125,-1.1154398918151855,0.10751228034496307,0.7061602473258972
1717011037762605000,3.25360498046875,-1.2870930433273315,0.455705463886261,0.6120869517326355
1717011037802610700,3.293610595703125,-1.348179578781128,0.4807509481906891,0.7000515460968018
1717011037842622500,3.33362255859375,-1.4899003505706787,-0.0708603709936142,0.9615018963813782
1717011037882630700,3.373630615234375,-1.3939944505691528,-0.4349360466003418,1.0512990951538086
1717011037922605800,3.413605712890625,-1.1362093687057495,-0.3878994286060333,0.8527678847312927
1717011037962617300,3.453617431640625,-1.0885618925094604,-0.2626720666885376,0.6585127115249634
1717011038002625800,3.493625732421875,-1.1264355182647705,-0.06536258012056351,0.475253164768219
1717011038042631400,3.53363134765625,-1.1105530261993408,0.07024950534105301,0.26633724570274353
1717011038082614800,3.57361474609375,-0.9706648588180542,-0.12461651116609573,0.22296582162380219
1717011038122623200,3.613623291015625,-0.6218608021736145,-0.3494149148464203,0.0659734457731247
1717011038162628400,3.65362841796875,-0.1368338167667389,-0.30543261766433716,-0.3243694305419922
1717011038202609200,3.693609130859375,0.3781255781650543,-0.09651670604944229,-0.7489207983016968
1717011038242615800,3.73361572265625,0.7568620443344116,0.01466076634824276,-0.9810495972633362
1717011038282621400,3.773621337890625,0.9975429177284241,-0.10445795953273773,-0.8802568316459656
1717011038322633200,3.81363330078125,1.3603968620300293,-0.16798794269561768,-0.9101892113685608
1717011038362611200,3.853611083984375,1.6493362188339233,0.10384709388017654,-1.1832460165023804
1717011038402616800,3.893616943359375,1.7324138879776,0.40133845806121826,-1.4367550611495972
1717011038442628400,3.93362841796875,1.8777997493743896,0.39217549562454224,-1.624901533126831
1717011038482606600,3.973606689453125,1.8894062042236328,0.3604104816913605,-1.5638149976730347
1717011038522612000,4.013612060546875,1.7146987915039062,0.4306600093841553,-1.4269812107086182
1717011038562623700,4.053623779296875,1.5974125862121582,0.4398229718208313,-1.0897835493087769
1717011038602632000,4.0936318359375,1.5564846992492676,0.2119702398777008,-0.42271876335144043
1717011038642607000,4.133607177734375,1.387274980545044,0.1722639948129654,-0.21380282938480377
1717011038682618400,4.173618408203125,1.1441506147384644,0.18997909128665924,-0.32681289315223694
1717011038722627000,4.213626953125,0.8833111524581909,0.21807889640331268,-0.37079519033432007
1717011038762602000,4.25360205078125,0.7171558141708374,0.1661553531885147,-0.3701843321323395
1717011038802613500,4.293613525390625,0.4190535545349121,-0.001832595793530345,-0.10873401165008545
1717011038842622200,4.333622314453125,-0.09834930300712585,-0.26022860407829285,0.32620203495025635
1717011038882627800,4.3736279296875,-0.5320636034011841,-0.35185837745666504,0.5314527750015259
1717011038922609000,4.41360888671875,-0.9156870245933533,-0.1612684279680252,0.6890559792518616
1717011038962617300,4.453617431640625,-1.282817006111145,-0.2168571650981903,0.9431759119033813
1717011039002623000,4.493623046875,-1.431868076324463,-0.8833111524581909,1.6029103994369507
1717011039042634500,4.533634521484375,-1.2803735733032227,-1.4398094415664673,1.7727309465408325
1717011039082612500,4.573612548828125,-0.9541715383529663,-1.3726142644882202,1.845423936843872
1717011039122618000,4.6136181640625,-1.054964303970337,-1.0018190145492554,2.155132532119751
1717011039162628900,4.65362890625,-1.0268645286560059,-0.8509352803230286,2.325563907623291
1717011039202607000,4.693607177734375,-1.3066407442092896,-0.7843509912490845,2.152689218521118
1717011039242613000,4.733613037109375,-1.4886785745620728,-0.26022860407829285,1.455691933631897
1717011039282624500,4.77362451171875,-1.1734721660614014,0.24495697021484375,0.8967501521110535
1717011039322633200,4.81363330078125,-0.9749409556388855,0.2321287989616394,1.0659598112106323
1717011039362610400,4.8536103515625,-0.7067710757255554,0.07147123664617538,1.6169602870941162
1717011039402547200,4.893547119140625,-0.2968805134296417,-0.13255776464939117,1.8411478996276855
1717011039442462700,4.933462646484375,-0.13988813757896423,-0.10995574295520782,1.884519338607788
1717011039483021600,4.974021484375,0.6255260109901428,-0.1411098688840866,1.2877039909362793
1717011039523030300,5.0140302734375,1.274264931678772,-0.04337143152952194,0.8930850028991699
1717011039563038700,5.054038818359375,1.5595389604568481,0.09957103431224823,0.40194934606552124
1717011039603017000,5.094016845703125,1.7660114765167236,-0.12278391420841217,0.21502456068992615
1717011039643025400,5.134025390625,2.3322834968566895,-0.8399397134780884,0.09224065393209457
1717011039683033900,5.174033935546875,2.247373342514038,0.2736676335334778,-0.5064072608947754
1717011039723042600,5.21404248046875,1.9168951511383057,1.0891727209091187,-0.5406157374382019
1717011039763020500,5.2540205078125,2.0451767444610596,0.770301103591919,-0.7568620443344116
1717011039803029000,5.294029052734375,2.0305161476135254,0.8772025108337402,-1.5369369983673096
1717011039843037700,5.33403759765625,1.8576412200927734,1.7788395881652832,-1.5448782444000244
1717011039883015700,5.374015625,1.2754865884780884,1.6389514207839966,-1.1954632997512817
1717011039923024100,5.414024169921875,0.5351179838180542,1.0195341110229492,-0.7171558141708374
1717011039963032600,5.454032470703125,-0.2382374405860901,0.8319984674453735,-0.7409795522689819
1717011040003041300,5.494041259765625,-0.6792821288108826,0.47280970215797424,-0.6548475623130798
1717011040043019300,5.534019287109375,-0.7641924023628235,0.24007004499435425,-0.8093964457511902
1717011040083027700,5.57402783203125,-1.0629055500030518,0.09468411654233932,-0.8637634515762329
1717011040133685500,5.624685546875,-1.228450059890747,-0.13255776464939117,-0.645684540271759
1717011040173693200,5.664693115234375,-1.228450059890747,-0.13255776464939117,-0.645684540271759
1717011040213668600,5.704668701171875,-1.6035212278366089,-0.47830748558044434,0.3286454975605011
1717011040253680400,5.744680419921875,-1.6377297639846802,-0.6206390857696533,0.5540547966957092
1717011040293689000,5.784689208984375,-1.6633861064910889,-1.6798794269561768,1.5015068054199219
1717011040333663700,5.824663818359375,-1.6688838005065918,-1.1288789510726929,0.9944885969161987
1717011040373675500,5.864675537109375,-1.9883663654327393,0.028099801391363144,0.3640756905078888
1717011040413684000,5.90468408203125,-2.138639211654663,-0.3219259977340698,1.151481032371521
1717011040453691600,5.944691650390625,-2.0146336555480957,-1.0109820365905762,1.6352862119674683
1717011040493670700,5.984670654296875,-1.6291775703430176,-0.5870414972305298,0.8216137290000916
1717011040533679400,6.024679443359375,-1.3225232362747192,0.323147714138031,-0.18631389737129211
1717011040573685000,6.06468505859375,-1.1704177856445312,0.4300491213798523,0.07391469180583954
1717011040613668000,6.104668212890625,-0.8607091307640076,-0.2382374405860901,1.1508700847625732
1717011040653676300,6.14467626953125,-0.4996877610683441,-0.827111542224884,1.835650086402893
1717011040693679900,6.184679931640625,-0.19608774781227112,-0.36651915311813354,1.3866641521453857
1717011040733693200,6.224693115234375,0.20036379992961884,0.21074850857257843,0.8484918475151062
1717011040773671400,6.26467138671875,0.7275404930114746,0.24007004499435425,0.656069278717041
1717011040813677000,6.304677001953125,1.1435397863388062,0.1264491081237793,0.7373143434524536
1717011040853686500,6.3446865234375,1.528384804725647,0.29626965522766113,1.0684033632278442
1717011040893697300,6.384697265625,1.8460347652435303,-0.07941248267889023,0.7666358947753906
1717011040933670100,6.424670166015625,2.4416284561157227,0.012828170321881771,0.09040805697441101
1717011040973681700,6.464681640625,2.1368067264556885,0.7134906053543091,0.2577851414680481
1717011041013690000,6.504690185546875,1.5650367736816406,0.07391469180583954,0.21319197118282318
1717011041053665300,6.544665283203125,1.539380431175232,-0.38117989897727966,0.45875978469848633
1717011041093676800,6.5846767578125,1.4086552858352661,-0.30482175946235657,0.6041457056999207
1717011041133685500,6.624685546875,1.4031574726104736,-0.25595253705978394,0.7147123217582703
1717011041173690400,6.6646904296875,1.6145168542861938,-0.3323107063770294,0.42088615894317627
1717011041213671200,6.704671142578125,1.4141530990600586,-0.5216789245605469,0.6249151229858398
1717011041253680400,6.744680419921875,0.9456194043159485,-0.8313875794410706,0.7574729323387146
1717011041293685500,6.784685546875,0.4043927788734436,-0.6640105247497559,0.5149593949317932
1717011041333666600,6.82466650390625,-0.28038713335990906,-0.5125159621238708,0.46547931432724
1717011041373675300,6.86467529296875,-0.5375614166259766,-0.7037167549133301,0.8344419002532959
1717011041413681000,6.904680908203125,-0.7000515460968018,-0.8955284357070923,1.284038782119751
1717011041453692400,6.9446923828125,-0.9077457785606384,-1.3182471990585327,1.6847662925720215
1717011041493670700,6.984670654296875,-1.3176363706588745,-1.054964303970337,2.551584243774414
1717011041533676000,7.024676025390625,-1.7092009782791138,-0.9853256344795227,2.7238481044769287
1717011041573687800,7.064687744140625,-1.9058995246887207,-1.595579981803894,2.5894577503204346
1717011041613665500,7.10466552734375,-1.740355134010315,-1.4501941204071045,2.0366246700286865
1717011041653671400,7.14467138671875,-1.6084082126617432,-0.6426302194595337,1.2052371501922607
1717011041693683000,7.184682861328125,-1.8973474502563477,-0.26572638750076294,0.9950994849205017
1717011041733691400,7.22469140625,-2.073887586593628,-0.21319197118282318,0.9101892113685608
1717011041773666600,7.26466650390625,-2.090991735458374,-0.19364428520202637,0.6450737118721008
1717011041813680000,7.30468017578125,-1.9394971132278442,-0.1007927656173706,0.4098905920982361
1717011041853688600,7.3446884765625,-1.6035212278366089,-0.0861319974064827,0.394618958234787
1717011041893694200,7.384694091796875,-1.2492194175720215,-0.0861319974064827,0.36590829491615295
1717011041933675300,7.42467529296875,-0.7715228199958801,-0.0354301854968071,0.2779437005519867
1717011041973683700,7.46468359375,-0.0861319974064827,-0.036041051149368286,0.22418753802776337
1717011042013689300,7.504689453125,0.5155702829360962,-0.06414084881544113,0.3787364661693573
1717011042053670400,7.54467041015625,1.1129964590072632,-0.3378084897994995,0.46792277693748474
1717011042093678800,7.584678955078125,1.7159204483032227,-0.25106561183929443,0.24923302233219147
1717011042133682200,7.62468212890625,2.0256290435791016,0.23151792585849762,-0.10995574295520782
1717011042173693200,7.664693115234375,1.9529361724853516,0.18936823308467865,-0.07819075137376785
1717011042213671400,7.70467138671875,1.9285016059875488,0.06169738993048668,-0.17592918872833252
1717011042253677600,7.744677490234375,2.0341813564300537,0.44715335965156555,-0.3744603991508484
1717011042293689000,7.784689208984375,1.8472565412521362,0.6340781450271606,-0.5387831330299377
1717011042333667000,7.8246669921875,1.7360789775848389,0.6157521605491638,-0.5626068711280823
1717011042373672700,7.864672607421875,1.6420058012008667,0.20830504596233368,-0.4050036668777466
1717011042413683700,7.90468359375,1.528384804725647,-0.21074850857257843,-0.23884831368923187
1717011042453692400,7.9446923828125,1.2235630750656128,-0.016493361443281174,-0.5229006409645081
1717011042493667600,7.98466748046875,0.7226535677909851,0.32009339332580566,-0.7024950385093689
1717011042533678800,8.024678955078125,0.33719760179519653,0.07269296050071716,-0.38667771220207214
1717011042573687800,8.064687744140626,0.21563543379306793,-0.1875356286764145,0.00733038317412138
1717011042613662700,8.104662841796875,0.10384709388017654,-0.2480112910270691,0.38117989897727966
1717011042653674200,8.14467431640625,-0.05253441259264946,-0.2938261926174164,0.7812966704368591
1717011042693682400,8.184682373046876,-0.38179078698158264,-0.46181413531303406,1.1410962343215942
1717011042733688300,8.224688232421874,-0.484416127204895,-0.5467243790626526,1.470963478088379
1717011042773669000,8.264669189453125,-0.93095862865448,-0.750142514705658,1.892460584640503
1717011042813677800,8.304677734375,-1.1954632997512817,-1.3518447875976562,2.0060815811157227
1717011042853683500,8.344683349609374,-1.0592403411865234,-1.4892895221710205,1.955379605293274
1717011042893695000,8.384695068359376,-1.2602150440216064,-1.3548991680145264,1.7067575454711914
1717011042933673000,8.4246728515625,-1.816102385520935,-1.1233811378479004,1.8301522731781006
1717011042973678800,8.464678955078124,-2.253481864929199,-0.49235737323760986,1.833817481994629
1717011043013690000,8.504690185546876,-2.3518311977386475,-0.1667662113904953,1.5668693780899048
1717011043053668400,8.54466845703125,-2.2040019035339355,-0.13439035415649414,1.10139000415802
1717011043093676000,8.584676025390625,-2.065335512161255,0.06291911751031876,0.6401867866516113
1717011043133687600,8.6246875,-1.8350391387939453,0.27977627515792847,0.5002986192703247
1717011043173695700,8.66469580078125,-1.3652838468551636,-0.03420845419168472,0.5925393104553223
1717011043213670700,8.704670654296875,-0.7177666425704956,-0.2822197377681732,0.7269296646118164
1717011043253682400,8.744682373046874,-0.1667662113904953,-0.1612684279680252,0.48808133602142334
1717011043293691100,8.784691162109375,0.5613851547241211,-0.12461651116609573,0.07819075137376785
1717011043333666000,8.824666015625,1.4282029867172241,0.21013765037059784,-0.018936822190880775
1717011043373675500,8.864675537109376,1.739133358001709,-0.06414084881544113,-0.04581489413976669
1717011043413684000,8.90468408203125,1.5827518701553345,-0.4184426963329315,-0.1264491081237793
1717011043453689600,8.944689697265625,1.693318486213684,0.031154127791523933,-0.35613444447517395
1717011043493670700,8.984670654296876,1.9272798299789429,0.7910705208778381,-0.7629706859588623
1717011043533679000,9.02467919921875,2.1600193977355957,1.1942415237426758,-1.004873275756836
1717011043573684700,9.064684814453125,2.258979558944702,0.9834930300712585,-0.827722430229187
1717011043613665800,9.104665771484376,2.0873265266418457,0.4331034719944,-0.7391469478607178
1717011043653674200,9.14467431640625,1.9853121042251587,0.08491026610136032,-0.6627888083457947
1717011043693680000,9.18468017578125,1.7122552394866943,0.26450464129447937,-0.607810914516449
1717011043733691400,9.22469140625,1.1624765396118164,0.1612684279680252,-0.5204572081565857
1717011043773669400,9.26466943359375,0.8698720932006836,0.06780604273080826,-0.413555771112442
1717011043813675300,9.30467529296875,0.6047565937042236,0.1667662113904953,-0.33536502718925476
1717011043853686300,9.344686279296875,0.23090706765651703,0.15332718193531036,-0.34025195240974426
1717011043893695000,9.384695068359376,-0.3390302062034607,0.39645153284072876,-0.3732386529445648
1717011043933670100,9.424670166015625,-1.0280861854553223,0.4715879559516907,-0.11972958594560623
1717011043973681700,9.464681640625,-1.5308283567428589,0.02626720629632473,0.28038713335990906
1717011044013690000,9.504690185546876,-1.4844025373458862,-0.4599815309047699,0.7855727076530457
1717011044053665300,9.544665283203125,-1.2412781715393066,-0.588263213634491,1.2388347387313843
1717011044093676500,9.584676513671875,-1.3658946752548218,-0.7147123217582703,1.4098769426345825
1717011044133685500,9.624685546875,-1.6224581003189087,-0.8631525635719299,1.4019356966018677
1717011044173690400,9.6646904296875,-1.966986060142517,-0.9828822016716003,1.2412781715393066
1717011044213671400,9.70467138671875,-2.0164661407470703,-0.8649851679801941,1.0403034687042236
1717011044253682400,9.744682373046874,-2.0671679973602295,-0.7098253965377808,0.8106181621551514
1717011044293688300,9.784688232421875,-2.13314151763916,-0.5668829679489136,0.7770205736160278
1717011044333669000,9.824669189453125,-1.7232508659362793,-0.5772676467895508,0.8301658630371094
1717011044373677600,9.864677490234374,-1.0781772136688232,-0.6065891981124878,0.7440338730812073
1717011044413683200,9.90468310546875,-0.6395758986473083,-0.29138273000717163,0.242513507604599
1717011044453694700,9.94469482421875,0.018936822190880775,0.07513642311096191,-0.38667771220207214
1717011044493670700,9.984670654296876,0.9236282706260681,0.43676865100860596,-0.5094616413116455
1717011044533676300,10.02467626953125,1.0415252447128296,0.3494149148464203,-0.1514945775270462
1717011044573689600,10.064689697265624,1.1160508394241333,-0.2583959996700287,-0.24007004499435425
1717011044613665800,10.104665771484376,1.474017858505249,-0.30115658044815063,-0.11789698898792267
1717011044653671400,10.14467138671875,1.3261884450912476,0.1661553531885147,-0.32498031854629517
1717011044693683000,10.184682861328126,1.0488556623458862,0.5027421116828918,-0.6676757335662842
1717011044733693400,10.224693359375,1.076344609260559,0.5326744914054871,-0.8625417351722717
1717011044773668600,10.264668701171875,1.3377948999404907,0.7745771408081055,-1.1331549882888794
1717011044813677800,10.304677734375,1.6646077632904053,1.0012081861495972,-1.3048081398010254
1717011044853686500,10.3446865234375,1.722640037536621,0.9388998746871948,-1.2113457918167114
1717011044893692200,10.384692138671875,1.880243182182312,0.8747590184211731,-1.0396926403045654
1717011044933673200,10.424673095703126,1.7256942987442017,0.7648032903671265,-0.9266825914382935
1717011044973682000,10.464681884765625,1.3396275043487549,0.6688974499702454,-0.9663888216018677
1717011045013687000,10.50468701171875,0.8827002644538879,0.8032878041267395,-1.0543533563613892
1717011045053667800,10.544667724609376,0.19608774781227112,0.979216992855072,-1.0329731702804565
1717011045093676300,10.58467626953125,-0.22663100063800812,0.7153232097625732,-0.5644394755363464
1717011045133682200,10.62468212890625,-0.7336491346359253,0.2028072625398636,-0.033597588539123535
1717011045173693400,10.664693359375,-0.8741481900215149,-0.4996877610683441,0.494189977645874
1717011045213671400,10.70467138671875,-0.8869763612747192,-0.8472700715065002,0.7562511563301086
1717011045253730000,10.74472998046875,-1.205847978591919,-0.5681046843528748,0.8881980776786804
1717011045293737700,10.78473779296875,-1.5106697082519531,-0.4337143301963806,0.9199630618095398
1717011045334296300,10.82529638671875,-2.1392500400543213,-0.4306600093841553,0.8723155856132507
1717011045374304800,10.8653046875,-2.1392500400543213,-0.4660901725292206,0.7391469478607178
1717011045414315500,10.9053154296875,-2.0225749015808105,-0.41233405470848083,0.5681046843528748
1717011045454293500,10.94529345703125,-1.7996090650558472,-0.39767327904701233,0.4386012554168701
1717011045494302000,10.985302001953125,-1.4013248682022095,-0.4196644127368927,0.3701843321323395
1717011045534310700,11.025310546875,-0.9450085163116455,-0.40622538328170776,0.3701843321323395
1717011045574319000,11.065319091796875,-0.5571091175079346,-0.34025195240974426,0.2834414839744568
1717011045614296800,11.105296875,-0.2076941877603531,-0.28038713335990906,0.042760565876960754
1717011045654305800,11.145305908203126,0.294437050819397,0.03420845419168472,-0.23029619455337524
1717011045694312200,11.185312255859374,0.5907067060470581,0.39217549562454224,-0.15454891324043274
1717011045734292200,11.225292236328125,0.4190535545349121,-0.04153883829712868,0.10873401165008545
1717011045774301000,11.265301025390626,0.7531968355178833,-0.38240164518356323,0.16065755486488342
1717011045814307300,11.305307373046874,1.0610729455947876,-0.07269296050071716,-0.17592918872833252
1717011045854316000,11.34531591796875,1.1374311447143555,0.6389650702476501,-0.5998696684837341
1717011045894293800,11.385293701171875,1.246165156364441,0.7446447610855103,-0.5485569834709167
1717011045934302500,11.425302490234374,1.3457361459732056,0.303600013256073,-0.39584067463874817
1717011045974311000,11.465310791015625,1.5766432285308838,0.4251621961593628,-0.627358615398407
1717011046014289000,11.505288818359375,1.5919147729873657,0.7617489695549011,-0.9938777685165405
1717011046054877400,11.54587744140625,1.560760736465454,0.8032878041267395,-1.0311405658721924
1717011046094886100,11.58588623046875,1.560760736465454,0.8032878041267395,-1.0311405658721924
1717011046134861000,11.625861083984375,1.2760975360870361,0.5418374538421631,-0.6829473376274109
1717011046174872000,11.6658720703125,1.015868902206421,0.5265658497810364,-0.6401867866516113
1717011046214880500,11.705880615234374,0.5314527750015259,0.7629706859588623,-0.9963212013244629
1717011046254856000,11.74585595703125,0.2968805134296417,1.074512004852295,-1.0824532508850098
1717011046294867200,11.7858671875,-0.35674530267715454,0.750142514705658,-0.6860016584396362
1717011046334876000,11.8258759765625,-0.9767735004425049,0.4856378734111786,-0.4147774875164032
1717011046374881500,11.865881591796875,-1.1936306953430176,0.3640756905078888,-0.35735616087913513
1717011046414862600,11.905862548828125,-1.0903944969177246,-0.016493361443281174,-0.06658431142568588
1717011046454871000,11.94587109375,-1.0464121103286743,-0.3072652220726013,0.19608774781227112
1717011046494877000,11.985876953125,-1.2015719413757324,-0.09407325088977814,0.2773328125476837
1717011046534857700,12.025857666015625,-1.5656476020812988,0.048258353024721146,0.11362093687057495
1717011046574866400,12.065866455078124,-1.7275269031524658,0.09162978827953339,0.016493361443281174
1717011046614871800,12.105871826171875,-1.6865988969802856,0.09468411654233932,0.06475171446800232
1717011046654885600,12.1458857421875,-1.5247195959091187,-0.009162978269159794,0.10812314599752426
1717011046694863600,12.185863525390625,-1.2657127380371094,-0.1563815027475357,0.08735372871160507
1717011046734869200,12.225869140625,-0.9999864101409912,-0.21319197118282318,-0.0555887371301651
1717011046774880800,12.265880859375,-0.6194173693656921,-0.0959058403968811,-0.23579397797584534
1717011046814889200,12.30588916015625,-0.37629300355911255,-0.12339477986097336,-0.2974913716316223
1717011046854864100,12.345864013671875,-0.08857546001672745,-0.3830125033855438,-0.7183775305747986
1717011046894873600,12.38587353515625,0.28527405858039856,0.21135938167572021,-1.13926362991333
1717011046934882000,12.425882080078125,0.251676470041275,0.3842342495918274,-1.386053204536438
1717011046974857200,12.465857177734375,0.16310101747512817,-0.014049900695681572,-1.4874569177627563
1717011047014870800,12.505870849609375,0.2125810980796814,-0.7141014933586121,-1.3151928186416626
1717011047054879500,12.54587939453125,0.6010913848876953,-0.5406157374382019,-1.3829989433288574
1717011047094883000,12.585883056640625,0.9395107626914978,-0.14966198801994324,-1.1942415237426758
1717011047134864000,12.62586376953125,1.1007791757583618,0.3640756905078888,-1.130711555480957
1717011047174871800,12.665871826171875,1.1398745775222778,0.46670106053352356,-1.6218472719192505
1717011047214877400,12.70587744140625,1.2589932680130005,0.4789183437824249,-1.7434093952178955
1717011047254858800,12.745858642578124,1.463022232055664,0.655458390712738,-1.6139060258865356
1717011047294867500,12.785867431640625,1.5778648853302002,0.9327912330627441,-1.8918496370315552
1717011047334872800,12.825872802734375,1.6890424489974976,1.2431107759475708,-1.9321668148040771
1717011047374884600,12.865884521484375,1.7006487846374512,1.4856243133544922,-2.1068742275238037
1717011047414862600,12.905862548828125,1.4972307682037354,1.5418238639831543,-2.024407386779785
1717011047454868200,12.9458681640625,1.1838568449020386,1.3555099964141846,-1.6927075386047363
1717011047494879500,12.98587939453125,0.5534439086914062,1.4440854787826538,-1.3897184133529663
1717011047534857500,13.025857421875,-0.23151792585849762,1.4471397399902344,-1.4312572479248047
1717011047574863000,13.065863037109375,-0.5852088928222656,1.4520267248153687,-1.503339409828186
1717011047614874600,13.10587451171875,-0.6359107494354248,1.5167783498764038,-1.0512990951538086
1717011047654883000,13.145883056640624,-0.6866125464439392,1.8967366218566895,-1.1447614431381226
1717011047694858500,13.1858583984375,-1.6505578756332397,1.6841554641723633,-1.0256427526474
1717011047734870000,13.2258701171875,-2.1172590255737305,1.2589932680130005,-0.5259549617767334
1717011047774878700,13.265878662109374,-2.182621479034424,0.8888089060783386,-0.16493362188339233
1717011047814884400,13.30588427734375,-2.166128158569336,0.513737678527832,-0.394618958234787
1717011047854867200,13.3458671875,-1.95965576171875,0.26083946228027344,-0.4642575979232788
1717011047894876000,13.3858759765625,-1.7495180368423462,0.0555887371301651,-0.19853121042251587
1717011047934881300,13.42588134765625,-1.4972307682037354,-0.11362093687057495,0.012217304669320583
1717011047974862300,13.4658623046875,-1.1520918607711792,-0.2076941877603531,-0.06536258012056351
1717011048014871000,13.50587109375,-0.607810914516449,-0.24495697021484375,-0.342695415019989
1717011048054876400,13.54587646484375,-0.07024950534105301,-0.4147774875164032,-0.5644394755363464
1717011048094887700,13.5858876953125,0.24068090319633484,-0.7959573864936829,-0.788016140460968
1717011048134866000,13.625865966796875,0.6719517707824707,-0.9669997096061707,-1.4025466442108154
1717011048174869000,13.665868896484374,1.0696250200271606,-0.152105450630188,-1.5430456399917603
1717011048214882600,13.705882568359375,0.5968153476715088,0.08735372871160507,-1.7269160747528076
1717011048254860800,13.74586083984375,0.9517280459403992,-0.11789698898792267,-1.6468926668167114
1717011048294866700,13.78586669921875,1.166752576828003,-0.04948008432984352,-2.3072381019592285
1717011048334878000,13.8258779296875,1.2455542087554932,0.8521569967269897,-3.0133981704711914
1717011048374886700,13.86588671875,1.3280210494995117,1.321912407875061,-2.94742488861084
1717011048414859500,13.905859619140625,1.3756685256958008,0.8356636762619019,-2.459954261779785
1717011048454871000,13.94587109375,1.4575244188308716,0.4105014503002167,-2.1673498153686523
1717011048494879700,13.985879638671875,1.4508049488067627,0.8313875794410706,-2.4129176139831543
1717011048534854700,14.025854736328125,1.0396926403045654,1.5522085428237915,-2.5973989963531494
1717011048574866200,14.0658662109375,0.9101892113685608,1.6377297639846802,-2.5112669467926025
1717011048614874600,14.10587451171875,0.9712757468223572,1.3878858089447021,-2.1697933673858643
1717011048654880300,14.14588037109375,0.7525860071182251,1.1068878173828125,-2.13314151763916
1717011048694861300,14.185861328125,0.7617489695549011,1.5051720142364502,-2.1258111000061035
1717011048734869800,14.225869873046875,0.18387043476104736,1.7452419996261597,-1.7666223049163818
1717011048774875400,14.26587548828125,-0.4447098970413208,1.5735888481140137,-1.0067058801651
1717011048814887000,14.305886962890625,-0.48380526900291443,1.1166616678237915,-0.2620611786842346
1717011048854865000,14.345864990234375,-0.6743952035903931,0.051312681287527084,0.3286454975605011
1717011048894870800,14.385870849609375,-0.8881980776786804,-0.17959438264369965,0.46242499351501465
1717011048934882000,14.425882080078125,-1.4227051734924316,0.3903428912162781,0.4660901725292206
1717011048974860300,14.4658603515625,-1.7892242670059204,0.5302310585975647,0.42699480056762695
1717011049014866000,14.505865966796875,-1.7336355447769165,0.34697145223617554,0.4697553813457489
1717011049054877400,14.54587744140625,-1.5900822877883911,0.03787364438176155,0.5479460954666138
1717011049094888200,14.58588818359375,-1.4685200452804565,-0.02626720629632473,0.6120869517326355
1717011049134863000,14.625863037109376,-1.1527026891708374,-0.054367005825042725,0.5467243790626526
1717011049174874000,14.6658740234375,-0.8405506014823914,-0.1765400618314743,0.6438519954681396
1717011049214882800,14.7058828125,-0.46731191873550415,-0.3903428912162781,0.48319441080093384
1717011049254857700,14.745857666015626,0.060475658625364304,-0.5314527750015259,0.3390302062034607
1717011049294869500,14.785869384765626,0.5913175344467163,-0.5345070958137512,-0.0024434609804302454
1717011049334876200,14.825876220703124,1.054964303970337,0.13805554807186127,-0.04703662544488907
1717011049374881800,14.8658818359375,1.024420976638794,-0.00427605677396059,0.21319197118282318
1717011049414862800,14.90586279296875,1.0286970138549805,-0.8497135639190674,0.0806342139840126
1717011049454871000,14.94587109375,0.9590584635734558,-0.6670648455619812,-0.5259549617767334
1717011049494877000,14.985876953125,0.7751879692077637,0.9132435321807861,-1.3170254230499268
1717011049534857500,15.025857421875,0.7214318513870239,0.8008443117141724,-0.8393288254737854
1717011049574868500,15.065868408203125,0.9932668805122375,-0.12889257073402405,-0.10751228034496307
1717011049614872000,15.1058720703125,1.303586483001709,-0.49785518646240234,0.2376265823841095
1717011049654883300,15.14588330078125,1.4618005752563477,-0.12889257073402405,-0.13255776464939117
1717011049694861600,15.185861572265624,1.2760975360870361,0.2767219543457031,-0.5699372887611389
1717011049734867000,15.225866943359375,1.0580185651779175,0.16798794269561768,-0.423329621553421
1717011049774878500,15.26587841796875,0.6603453159332275,-0.17409659922122955,-0.08674286305904388
1717011049814887200,15.30588720703125,0.16493362188339233,-0.11728613078594208,-0.1368338167667389
1717011049854861800,15.34586181640625,0.059864792972803116,0.025045474991202354,-0.2919935882091522
1717011049894873600,15.38587353515625,-0.25045475363731384,0.2125810980796814,0.05803219974040985
1717011049934882000,15.425882080078125,-0.8631525635719299,0.048258353024721146,0.6291912198066711
1717011049974857200,15.465857177734375,-1.0574077367782593,-0.3799581825733185,0.8894197940826416
1717011050014868700,15.50586865234375,-0.7440338730812073,-0.79840087890625,1.1246029138565063
1717011050054877200,15.545877197265625,-0.598647952079773,-0.8649851679801941,1.434922456741333
1717011050094883000,15.585883056640625,-1.06657075881958,-0.5400048494338989,1.5082262754440308
1717011050134864100,15.625864013671874,-1.6487252712249756,-0.2828305959701538,1.2125675678253174
1717011050174874000,15.6658740234375,-1.8106045722961426,-0.2217440903186798,1.0690141916275024
1717011050214880000,15.7058798828125,-1.5308283567428589,-0.21563543379306793,1.1954632997512817
1717011050254861000,15.745861083984375,-1.2223412990570068,-0.32559117674827576,1.3390166759490967
1717011050294869500,15.785869384765626,-0.9175195693969727,-0.49235737323760986,1.1985175609588623
1717011050334875100,15.825875244140626,-0.45692721009254456,-0.6389650702476501,0.911410927772522
1717011050374886700,15.86588671875,-0.13561208546161652,-0.3854559659957886,0.44715335965156555
1717011050414864600,15.90586474609375,0.11728613078594208,-0.09040805697441101,-0.08552113175392151
1717011050454868200,15.9458681640625,0.6438519954681396,0.11545353382825851,-0.1111774742603302
1717011050494880000,15.9858798828125,0.7220427393913269,0.16371189057826996,0.19364428520202637
1717011050534857700,16.025857666015625,0.3830125033855438,-0.475253164768219,0.626747727394104
1717011050574863000,16.065863037109374,0.34513887763023376,-0.7531968355178833,0.7806857824325562
1717011050614874600,16.10587451171875,0.2376265823841095,-0.11301007121801376,0
1717011050654883300,16.14588330078125,0.39706242084503174,0.8680394887924194,-0.2724458873271942
1717011050694858500,16.1858583984375,0.788627028465271,0.47830748558044434,0.07696902006864548
1717011050734870000,16.2258701171875,1.1178834438323975,-0.06536258012056351,0.3072652220726013
1717011050774878500,16.26587841796875,1.405600905418396,0.06902777403593063,0.1007927656173706
1717011050814884400,16.30588427734375,1.4275920391082764,0.21441370248794556,-0.13316862285137177
1717011050854865200,16.345865234375,1.330464482307434,0.29993483424186707,-0.2767219543457031
1717011050894873900,16.385873779296876,1.1527026891708374,0.3500257730484009,-0.25106561183929443
1717011050934879000,16.42587890625,0.9010262489318848,0.01038470957428217,-0.0354301854968071
1717011050974860300,16.4658603515625,0.5913175344467163,-0.054367005825042725,-0.13500121235847473
1717011051014868700,16.50586865234375,0.3341432809829712,0.2321287989616394,-0.4764748811721802
1717011051054874000,16.5458740234375,0.05253441259264946,0.43676865100860596,-0.14966198801994324
1717011051094886000,16.585885986328126,-0.6786713004112244,0.10262536257505417,0.13011430203914642
1717011051134864100,16.625864013671876,-0.8808676600456238,-0.3341432809829712,0.46670106053352356
1717011051174891800,16.665891845703126,-0.826500654220581,-0.5821545720100403,0.8546004891395569
1717011051214899500,16.7058994140625,-0.8741481900215149,-0.6145304441452026,0.7855727076530457
1717011051255458300,16.746458251953126,-1.3164145946502686,-0.3243694305419922,0.7214318513870239
1717011051295466800,16.786466796875,-1.834428310394287,-0.26083946228027344,0.5265658497810364
1717011051335475500,16.826475341796876,-2.012190103530884,-0.07819075137376785,0.2932153046131134
1717011051375455500,16.86645556640625,-1.8570303916931152,0.059864792972803116,0.252287358045578
1717011051415464200,16.906464111328123,-1.5986343622207642,-0.07513642311096191,0.2577851414680481
1717011051455472600,16.94647265625,-1.1582005023956299,-0.20525072515010834,0.34025195240974426
1717011051495481300,16.9864814453125,-0.5510004758834839,-0.342695415019989,0.2938261926174164
1717011051535459000,17.026458984375,-0.1661553531885147,-0.4740314185619354,-0.036651913076639175
1717011051575467500,17.066467529296876,0.2028072625398636,-0.08246681094169617,-0.4453207552433014
1717011051615474000,17.106473876953125,0.4612032473087311,0.36102136969566345,-0.37201693654060364
1717011051655452200,17.1464521484375,0.21624629199504852,-0.31093040108680725,0.2834414839744568
1717011051695460600,17.186460693359376,0.4990769028663635,-0.7031059265136719,0.11423180252313614
1717011051735469300,17.22646923828125,0.7806857824325562,0.17837265133857727,-0.4795292317867279
1717011051775477500,17.2664775390625,0.7867944240570068,0.8234463334083557,-0.46792277693748474
1717011051815456000,17.3064560546875,0.9321803450584412,0.192422553896904,-0.10445795953273773
1717011051855464400,17.34646435546875,0.93095862865448,-0.012217304669320583,-0.11545353382825851
1717011051895473000,17.386472900390626,1.0977247953414917,0.3695734739303589,-0.6035348773002625
1717011051935451100,17.426451171875,1.187522053718567,0.47769662737846375,-0.8356636762619019
1717011051975459600,17.46645947265625,1.3048081398010254,0.5015203952789307,-0.8399397134780884
1717011052015468000,17.506468017578126,1.3292428255081177,0.31093040108680725,-0.6096435189247131
1717011052055476700,17.546476806640626,1.0378600358963013,0.26022860407829285,-0.44104471802711487
1717011052095454700,17.586454833984376,0.5992587804794312,0.4954117238521576,-0.5363397002220154
1717011052135460000,17.626460205078125,0.3494149148464203,0.8472700715065002,-1.166752576828003
1717011052175471000,17.66647119140625,0.33047810196876526,1.0702359676361084,-1.1044443845748901
1717011052215449000,17.706448974609376,0.18448130786418915,0.5387831330299377,-0.4031710624694824
1717011052255458000,17.7464580078125,-0.059864792972803116,-0.19058994948863983,-0.09468411654233932
1717011052295466500,17.786466552734375,-0.21807889640331268,-0.39584067463874817,0.394008070230484
1717011052335475500,17.826475341796876,-0.5998696684837341,-0.1459967941045761,0.182648703455925
1717011052375453400,17.866453369140626,-1.2901474237442017,0.4031710624694824,-0.2217440903186798
1717011052415462000,17.9064619140625,-1.6896532773971558,0.6914994716644287,-0.41599923372268677
1717011052455470600,17.946470703125,-1.871691107749939,0.53328537940979,-0.22113321721553802
1717011052495479000,17.98647900390625,-1.7812830209732056,0.22968533635139465,0.02932153269648552
1717011052535459000,18.026458984375,-1.538158655166626,0.11545353382825851,0.0757472887635231
1717011052575467800,18.0664677734375,-1.2211196422576904,0.04398229718208313,0.04703662544488907
1717011052615476200,18.106476318359373,-0.8411614298820496,-0.21868975460529327,0.0006108652451075613
1717011052655454200,18.1464541015625,-0.3029891550540924,-0.20402899384498596,-0.15943582355976105
1717011052695460600,18.186460693359376,-0.05192354694008827,-0.2125810980796814,-0.1918116807937622
1717011052735471000,18.22647119140625,-0.05253441259264946,-0.5473352670669556,-0.5583308339118958
1717011052775479800,18.266479736328126,0.33169981837272644,0.06902777403593063,-1.3756685256958008
1717011052815455700,18.306455810546876,0.22907446324825287,0.5705481171607971,-1.3127493858337402
1717011052865750800,18.356750732421876,0.22907446324825287,0.5705481171607971,-1.3127493858337402
1717011052905759500,18.396759521484373,0.36529740691185,-0.29077184200286865,-1.0787880420684814
1717011052945764900,18.436764892578125,0.6536257863044739,0.7250970602035522,-1.8405369520187378
1717011052985746200,18.47674609375,0.7751879692077637,0.969443142414093,-1.8808541297912598
1717011053025752300,18.51675244140625,0.8454375267028809,0.5644394755363464,-1.6859880685806274
1717011053065758000,18.556758056640625,0.8820894360542297,0.455705463886261,-1.6084082126617432
1717011053105769500,18.59676953125,1.0390818119049072,0.7147123217582703,-1.8594738245010376
1717011053145747200,18.636747314453125,1.1997393369674683,0.8735373020172119,-1.794722080230713
1717011053185752600,18.676752685546877,1.2559388875961304,0.6029239892959595,-1.5888605117797852
1717011053225764000,18.71676416015625,1.0299187898635864,0.3139847218990326,-0.9902125597000122
1717011053265742600,18.75674267578125,0.8710938692092896,0.5381723046302795,-0.8753699064254761
1717011053305748200,18.796748291015625,0.6279694437980652,0.8753699064254761,-1.2400563955307007
1717011053345759500,18.836759521484375,0.313373863697052,1.238223910331726,-1.6090190410614014
1717011053385768000,18.876767822265624,-0.08735372871160507,1.246165156364441,-1.7122552394866943
1717011053425743000,18.9167431640625,-0.5668829679489136,1.1081095933914185,-1.2137892246246338
1717011053465755000,18.9567548828125,-0.7782423496246338,0.6328563690185547,-0.5998696684837341
1717011053505763600,18.996763671875,-0.8955284357070923,0.46853363513946533,-0.50335294008255
1717011053545738500,19.036738525390625,-1.1410962343215942,0.9150761365890503,-1.2223412990570068
1717011053585750000,19.07675,-1.5644259452819824,1.3548991680145264,-1.3329079151153564
1717011053625758500,19.116758544921876,-1.8643606901168823,0.9676105380058289,-0.6352998614311218
1717011053665764400,19.156764404296876,-1.825876235961914,0.22540926933288574,0.18814650177955627
1717011053705745000,19.196744873046875,-1.701259732246399,-0.036041051149368286,0.33047810196876526
1717011053745756000,19.236755859375,-1.42637038230896,0.11850785464048386,-0.06963863968849182
1717011053785761500,19.276761474609376,-1.084285855293274,0.12217304855585098,-0.28527405858039856
1717011053825742300,19.316742431640623,-0.5864306092262268,-0.11728613078594208,-0.2675589919090271
1717011053865750800,19.356750732421876,-0.00366519158706069,-0.2541199326515198,-0.3781255781650543
1717011053905754000,19.396754150390624,0.28038713335990906,-0.2223549485206604,-0.6310238242149353
1717011053945768000,19.436767822265626,0.4178318381309509,-0.31520646810531616,-0.9364564418792725
1717011053985744100,19.476744140625,0.7483099102973938,0.08368854224681854,-1.651168704032898
1717011054025749200,19.516749267578124,0.608421802520752,0.6285803318023682,-1.832595705986023
1717011054065795300,19.55679541015625,0.5571091175079346,0.23457226157188416,-1.378722906112671
1717011054105769500,19.59676953125,1.0677924156188965,-0.3029891550540924,-0.7287622094154358
1717011054145744400,19.636744384765624,1.2919800281524658,0.06536258012056351,-0.9425650835037231
1717011054185755600,19.676755615234374,1.3909401893615723,0.2968805134296417,-1.2308934926986694
1717011054225764400,19.716764404296875,1.493565559387207,0.03481931984424591,-1.1056660413742065
1717011054265739800,19.75673974609375,1.3836097717285156,0.08368854224681854,-1.0793988704681396
1717011054305751600,19.79675146484375,0.9358455538749695,0.42699480056762695,-0.9376781582832336
1717011054345759500,19.836759521484375,0.5027421116828918,0.46364670991897583,-0.7257078886032104
1717011054385765000,19.87676513671875,0.4386012554168701,0.4080579876899719,-0.5943718552589417
1717011054425746200,19.91674609375,0.31642818450927734,0.49357911944389343,-0.656069278717041
1717011054465755000,19.9567548828125,0.1472185254096985,0.6438519954681396,-0.7440338730812073
1717011054505760500,19.996760498046875,-0.04337143152952194,0.5913175344467163,-0.5070181488990784
1717011054545741300,20.0367412109375,-0.2926044464111328,0.39156460762023926,-0.14782938361167908
1717011054585749800,20.076749755859375,-0.6713408827781677,0.30054569244384766,0.09529497474431992
1717011054625755600,20.116755615234375,-0.9779952764511108,0.051312681287527084,0.23273965716362
1717011054665767200,20.15676708984375,-0.8533787727355957,-0.31581732630729675,0.494189977645874
1717011054705745400,20.196745361328126,-0.921184778213501,-0.3323107063770294,0.5632177591323853
1717011054745750800,20.236750732421875,-1.1789699792861938,0.06658431142568588,0.5479460954666138
1717011054785762300,20.27676220703125,-1.4104878902435303,0.07880161702632904,0.7263187766075134
1717011054825740300,20.316740234375,-1.3524556159973145,-0.10262536257505417,1.027475357055664
1717011054865746000,20.356745849609375,-1.1814134120941162,-0.07696902006864548,0.720820963382721
1717011054905757400,20.39675732421875,-1.129489779472351,0.07147123664617538,0.8753699064254761
1717011054945766000,20.436765869140626,-1.178359031677246,-0.4056145250797272,1.3487904071807861
1717011054985740800,20.47674072265625,-0.8979719281196594,-0.23518311977386475,1.3103059530258179
1717011055025752300,20.51675244140625,-0.8649851679801941,-0.19792033731937408,1.3377948999404907
1717011055065761000,20.556760986328126,-0.8301658630371094,-0.42760565876960754,1.38849675655365
1717011055105766700,20.5967666015625,-0.5931501388549805,-0.42638394236564636,1.2321151494979858
1717011055145747000,20.636746826171876,-0.4599815309047699,-0.20830504596233368,0.9676105380058289
1717011055185755400,20.67675537109375,-0.37140607833862305,0.15454891324043274,0.6163630485534668
1717011055225763000,20.71676318359375,-0.22296582162380219,-0.1368338167667389,0.03176499158143997
1717011055265744600,20.75674462890625,0.15454891324043274,-0.09957103431224823,-0.3182607889175415
1717011055305753300,20.79675341796875,0.6383541822433472,0.19364428520202637,-0.7745771408081055
1717011055345758700,20.8367587890625,0.9645562171936035,0.2742784917354584,-0.8106181621551514
1717011055385768400,20.8767685546875,1.3017538785934448,0.09896016865968704,-0.8381071090698242
1717011055425746200,20.91674609375,1.4294246435165405,-0.0024434609804302454,-0.8148942589759827
1717011055465752000,20.956751953125,1.508837103843689,0.056810468435287476,-1.179580807685852
1717011055505763600,20.996763671875,1.4636331796646118,0.48197266459465027,-1.4031574726104736
1717011055545741600,21.036741455078126,1.3267992734909058,0.5687155723571777,-1.2101240158081055
1717011055585747200,21.076747314453126,1.2412781715393066,0.5241223573684692,-1.1252137422561646
1717011055625758500,21.116758544921876,1.122159481048584,0.5992587804794312,-0.9975429177284241
1717011055665767200,21.15676708984375,1.0958921909332275,0.8429940342903137,-1.3542882204055786
1717011055705742000,21.1967421875,1.0152580738067627,1.158811330795288,-1.615127682685852
1717011055745753600,21.236753662109376,1.0122036933898926,1.0012081861495972,-1.3432927131652832
1717011055785762000,21.276761962890625,0.7916813492774963,0.40072759985923767,-0.817948579788208
1717011055825737200,21.3167373046875,0.36713001132011414,0.21624629199504852,-0.6511823534965515
1717011055865748700,21.356748779296876,-0.42271876335144043,0.2919935882091522,-0.7244861721992493
1717011055905757400,21.39675732421875,-0.6352998614311218,0.08857546001672745,-0.6407976150512695
1717011055945762800,21.4367626953125,-0.9004153609275818,0.12828169763088226,-0.616973876953125
1717011055985744100,21.476744140625,-1.1917980909347534,0.48808133602142334,-0.5485569834709167
1717011056025752600,21.516752685546876,-1.4789047241210938,0.33169981837272644,-0.18875735998153687
1717011056065758200,21.55675830078125,-1.5467108488082886,0.03237585723400116,0.10201449692249298
1717011056105769700,21.596769775390626,-1.4599679708480835,-0.0861319974064827,0.13805554807186127
1717011056145747200,21.636747314453125,-1.4538593292236328,-0.004886921960860491,0.06963863968849182
1717011056185752600,21.676752685546877,-1.2932016849517822,-0.00733038317412138,0.01160643994808197
1717011056225764400,21.716764404296875,-1.094059705734253,-0.11850785464048386,0.2981022298336029
1717011056265745000,21.756744873046873,-0.8753699064254761,-0.43676865100860596,0.3933972120285034
1717011056305750500,21.79675048828125,-0.4862487316131592,-0.49724429845809937,0.3591887652873993
1717011056345761500,21.836761474609375,-0.13866640627384186,-0.5381723046302795,0.5015203952789307
1717011056385768200,21.876768310546876,0.4709770977497101,-0.22602014243602753,-0.10934487730264664
1717011056425743400,21.916743408203125,0.6914994716644287,0.4245513379573822,-0.46853363513946533
1717011056465755000,21.9567548828125,0.5155702829360962,0.06291911751031876,-0.3017674386501312
1717011056505766000,21.996765869140624,0.8326093554496765,-0.13072516024112701,-0.42149701714515686
1717011056545738800,22.03673876953125,1.0867292881011963,0.43799036741256714,-0.9285151958465576
1717011056585750300,22.076750244140626,1.2944234609603882,0.7770205736160278,-1.0030407905578613
1717011056625758500,22.116758544921876,1.513113260269165,0.3897320330142975,-0.646906316280365
1717011056665764400,22.156764404296876,1.660942554473877,0.013439035043120384,-0.3139847218990326
1717011056705745200,22.1967451171875,1.7037031650543213,0.15821409225463867,-0.44776421785354614
1717011056745753600,22.236753662109376,1.4868459701538086,0.21991148591041565,-0.6603453159332275
1717011056785759200,22.27675927734375,1.0922271013259888,0.3384193480014801,-0.6646214127540588
1717011056825740300,22.316740234375,0.6548475623130798,0.23457226157188416,-0.36651915311813354
1717011056865749000,22.3567490234375,0.304210901260376,0.1319468915462494,0.02015855349600315
1717011056905754400,22.39675439453125,-0.0403171069920063,0.2620611786842346,-0.10262536257505417
1717011056945766000,22.436765869140626,-0.4129449129104614,0.5100724697113037,-0.13805554807186127
1717011056985744100,22.476744140625,-0.836885392665863,0.394618958234787,0.10567969083786011
1717011057025749500,22.51674951171875,-1.2247848510742188,0.41661009192466736,0.21563543379306793
1717011057065761300,22.55676123046875,-1.4605787992477417,0.15393804013729095,0.4691445231437683
1717011057105772000,22.59677197265625,-1.2705997228622437,-0.5393940210342407,1.0769554376602173
1717011057145744100,22.636744140625,-0.8411614298820496,-0.8827002644538879,1.1679743528366089
1717011057185755400,22.67675537109375,-0.8014551997184753,-0.5436700582504272,0.912021815776825
1717011057225764400,22.716764404296875,-1.1630873680114746,-0.2382374405860901,0.7996225953102112
1717011057265739800,22.75673974609375,-1.3726142644882202,-0.07513642311096191,0.7244861721992493
1717011057305751300,22.796751220703126,-1.3701707124710083,-0.1973094791173935,0.7049384713172913
1717011057345759700,22.836759765625,-1.2889256477355957,-0.35246923565864563,0.66584312915802
1717011057385765600,22.876765625,-1.1081095933914185,-0.3341432809829712,0.36102136969566345
1717011057425748700,22.916748779296874,-0.9010262489318848,-0.19547687470912933,0.07819075137376785
1717011057465757000,22.9567568359375,-0.5002986192703247,-0.09773843735456467,-0.07024950534105301
1717011057505762800,22.9967626953125,-0.1771509200334549,-0.05009094998240471,-0.18387043476104736
1717011057545743400,23.036743408203126,0.31093040108680725,-0.02932153269648552,-0.32009339332580566
1717011057585750000,23.07675,0.6688974499702454,0.1215621829032898,-0.4856378734111786
1717011057625755600,23.116755615234375,0.7116580009460449,0.3591887652873993,-0.7929030656814575
1717011057665767200,23.15676708984375,0.675006091594696,0.27611109614372253,-0.636521577835083
1717011057705747500,23.19674755859375,0.789237916469574,0.06169738993048668,-0.616973876953125
1717011057745752800,23.2367529296875,1.2608258724212646,0.24678955972194672,-0.7104362845420837
1717011057785762600,23.276762451171876,1.5632041692733765,0.48380526900291443,-0.8100073337554932
1717011057825740300,23.316740234375,1.6126842498779297,0.5076290369033813,-0.6688974499702454
1717011057865746000,23.356745849609375,1.4178181886672974,0.31581732630729675,-0.646906316280365
1717011057905757400,23.39675732421875,1.1844676733016968,0.3732386529445648,-0.8698720932006836
1717011057945676800,23.4366767578125,0.959669291973114,0.7922922372817993,-1.2345587015151978
1717011057985654500,23.476654541015623,0.7776314616203308,1.0323622226715088,-1.312138557434082
1717011058026153200,23.5171533203125,0.7776314616203308,1.0323622226715088,-1.312138557434082
1717011058066162000,23.557161865234374,0.5919284224510193,0.6774495840072632,-0.8203920125961304
1717011058106139600,23.5971396484375,0.3390302062034607,0.5992587804794312,-0.8637634515762329
1717011058146148400,23.6371484375,-0.03787364438176155,0.8197811841964722,-0.9639453291893005
1717011058186156800,23.67715673828125,-0.5167919993400574,1.0030407905578613,-1.0702359676361084
1717011058226134800,23.717134765625,-1.0109820365905762,0.8936958312988281,-0.8698720932006836
1717011058266143500,23.7571435546875,-1.3628404140472412,0.7819074988365173,-0.5925393104553223
1717011058306152000,23.79715185546875,-1.5937473773956299,0.13316862285137177,-0.16737708449363708
1717011058346160600,23.83716064453125,-1.4190399646759033,-0.4862487316131592,0.5650503635406494
1717011058386138600,23.877138671875,-1.3994922637939453,-0.38606682419776917,0.4813618063926697
1717011058426147000,23.91714697265625,-1.595579981803894,0.012828170321881771,0.4440990388393402
1717011058466155800,23.95715576171875,-1.8387043476104736,-0.02076941914856434,0.3903428912162781
1717011058506133500,23.997133544921876,-1.909564733505249,-0.024434609338641167,0.2064724564552307
1717011058546142200,24.03714208984375,-1.8393152952194214,-0.05375614017248154,0.11972958594560623
1717011058586150700,24.077150634765626,-1.814880609512329,-0.24007004499435425,0.0555887371301651
1717011058626159400,24.117159423828124,-1.4495831727981567,-0.3066543638706207,-0.4550946056842804
1717011058666137300,24.157137451171874,-0.9327912330627441,0.10445795953273773,-1.2492194175720215
1717011058706145800,24.197145751953126,-0.5002986192703247,0.1765400618314743,-1.357953429222107
1717011058746154500,24.237154541015624,-0.007941247895359993,-0.14966198801994324,-1.2614367008209229
1717011058786163000,24.277162841796876,0.5638286471366882,-0.3543018400669098,-1.3048081398010254
1717011058826141000,24.317140869140626,0.9639453291893005,-0.4703662395477295,-1.6841554641723633
1717011058866149600,24.357149658203124,1.0629055500030518,-0.25961771607398987,-2.2235496044158936
1717011058906158000,24.397157958984376,1.2052371501922607,0.07024950534105301,-2.5558602809906006
1717011058946136000,24.437135986328126,1.444696307182312,0.042760565876960754,-2.4080307483673096
1717011058986144800,24.477144775390624,1.503339409828186,-0.08674286305904388,-2.3909265995025635
1717011059026153200,24.5171533203125,1.7104226350784302,0.2742784917354584,-2.6169466972351074
1717011059066162000,24.557161865234374,1.4282029867172241,0.5632177591323853,-2.4691174030303955
1717011059106139600,24.5971396484375,1.1136072874069214,0.6609562039375305,-2.1508564949035645
1717011059146148400,24.6371484375,0.9627236127853394,0.5699372887611389,-2.0647244453430176
1717011059186156800,24.67715673828125,0.8521569967269897,0.7226535677909851,-2.2266037464141846
1717011059226134800,24.717134765625,0.8796459436416626,0.8943067193031311,-2.378709316253662
1717011059266143500,24.7571435546875,0.9376781582832336,1.140485405921936,-2.3047945499420166
1717011059306152000,24.79715185546875,0.837496280670166,1.263269305229187,-2.1875083446502686
1717011059356809200,24.847809326171873,0.770301103591919,1.246165156364441,-2.1343631744384766
1717011059396818000,24.88781787109375,0.770301103591919,1.246165156364441,-2.1343631744384766
1717011059436793000,24.92779296875,0.3854559659957886,1.3750576972961426,-1.7892242670059204
1717011059476804400,24.967804443359373,0.242513507604599,1.4098769426345825,-1.5931365489959717
1717011059516813000,25.00781298828125,-0.059864792972803116,1.5460999011993408,-1.4135421514511108
1717011059556787700,25.04778759765625,-0.588874101638794,1.6016886234283447,-0.9737191796302795
1717011059596799700,25.0877998046875,-0.9584475755691528,1.3909401893615723,-0.7373143434524536
1717011059636808200,25.12780810546875,-0.9083566069602966,0.7733554244041443,-0.394008070230484
1717011059676813800,25.167813720703126,-1.043968677520752,0.5314527750015259,-0.11178833991289139
1717011059716795000,25.207794921875,-1.4282029867172241,0.5626068711280823,0.13988813757896423
1717011059756803300,25.24780322265625,-1.540602207183838,0.35246923565864563,0.33475416898727417
1717011059796809000,25.28780908203125,-1.5253305435180664,0.09712757170200348,0.5564982295036316
1717011059836790000,25.3277900390625,-1.4147639274597168,-0.04642575979232788,0.5192354321479797
1717011059876798500,25.367798583984374,-1.160033106803894,-0.1313360333442688,0.1869247704744339
1717011059916804400,25.407804443359375,-0.9034696817398071,-0.04764748737215996,-0.17470745742321014
1717011059956815600,25.447815673828124,-0.6383541822433472,-0.018325956538319588,-0.6010913848876953
1717011059996795600,25.487795654296875,-0.34574973583221436,0.04642575979232788,-0.9236282706260681
1717011060036801300,25.52780126953125,-0.06475171446800232,0.03787364438176155,-1.1105530261993408
1717011060076812800,25.567812744140625,0.23518311977386475,-0.11056660860776901,-1.1679743528366089
1717011060116821500,25.607821533203126,0.5943718552589417,-0.2015855312347412,-1.3396275043487549
1717011060156793900,25.6477939453125,0.912021815776825,0.394618958234787,-1.9144517183303833
1717011060196805000,25.68780517578125,0.9761626720428467,0.7660250067710876,-3.0360002517700195
1717011060236814300,25.727814453125,0.8717046976089478,0.3090978264808655,-2.615114212036133
1717011060276791300,25.767791259765627,0.940121591091156,-0.027488935738801956,-1.8588629961013794
1717011060316801000,25.807801025390624,1.2638801336288452,-0.11423180252313614,-1.8038851022720337
1717011060356809200,25.847809326171873,1.2693779468536377,0.1966986060142517,-1.955379605293274
1717011060396814800,25.88781494140625,1.0317513942718506,0.53328537940979,-1.9908097982406616
1717011060436796000,25.9277958984375,0.9101892113685608,0.21991148591041565,-1.6139060258865356
1717011060476804400,25.967804443359373,0.9046914577484131,0.14294247329235077,-1.359175205230713
1717011060516810200,26.007810302734374,0.969443142414093,0.5155702829360962,-1.4624114036560059
1717011060556791000,26.047791015625,0.9108000993728638,0.5711590051651001,-1.094059705734253
1717011060596799500,26.087799560546873,0.8710938692092896,0.485027015209198,-0.8643743395805359
1717011060636805000,26.12780517578125,0.5833762884140015,0.4294382631778717,-0.626747727394104
1717011060676816600,26.167816650390623,0.29504790902137756,0.47280970215797424,-0.6676757335662842
1717011060716795000,26.207794921875,-0.16920967400074005,0.8429940342903137,-0.4795292317867279
1717011060756800300,26.24780029296875,-0.7281513810157776,0.9199630618095398,0.13316862285137177
1717011060796811800,26.287811767578123,-1.1252137422561646,0.7770205736160278,0.5424483418464661
1717011060836790000,26.3277900390625,-1.406822681427002,0.46853363513946533,0.4715879559516907
1717011060876795600,26.367795654296874,-1.244943380355835,0.06780604273080826,0.79840087890625
1717011060916807200,26.40780712890625,-1.0793988704681396,-0.2480112910270691,1.0739010572433472
1717011060956815400,26.4478154296875,-1.1441506147384644,-0.152105450630188,1.2040153741836548
1717011060996790500,26.48779052734375,-1.4844025373458862,-0.07452555745840073,1.3390166759490967
1717011061036802000,26.527802001953123,-1.7318029403686523,-0.18875735998153687,1.3127493858337402
1717011061076810800,26.567810791015624,-1.6701055765151978,-0.20952677726745605,1.1246029138565063
1717011061116818700,26.607818603515625,-1.4691308736801147,-0.15332718193531036,0.9431759119033813
1717011061156799000,26.647799072265624,-1.129489779472351,-0.12339477986097336,0.7507534027099609
1717011061196807400,26.687807373046876,-0.6023131608963013,-0.2816088795661926,0.6817256212234497
1717011061236813600,26.7278134765625,-0.0024434609804302454,-0.39584067463874817,0.5161811113357544
1717011061276794400,26.76779443359375,0.3842342495918274,-0.4086688458919525,0.35246923565864563
1717011061316803300,26.80780322265625,0.8973610401153564,-0.2376265823841095,0.01160643994808197
1717011061356806700,26.847806640625,1.1887437105178833,0.182648703455925,-0.21013765037059784
1717011061396818000,26.88781787109375,0.99876469373703,0.3188716471195221,-0.4196644127368927
1717011061436796000,26.9277958984375,1.1166616678237915,0.17531833052635193,-0.3854559659957886
1717011061476801800,26.9678017578125,1.4868459701538086,0.028099801391363144,0.14294247329235077
1717011061516813300,27.007813232421874,1.7366899251937866,-0.4398229718208313,0.8796459436416626
1717011061556791000,27.047791015625,1.6676621437072754,-0.9511171579360962,1.7745635509490967
1717011061596796700,27.087796630859376,1.0891727209091187,-0.6878342628479004,1.4764612913131714
1717011061636808200,27.12780810546875,0.911410927772522,0.32986724376678467,0.3127630054950714
1717011061676817000,27.16781689453125,0.7440338730812073,0.6065891981124878,-0.045204028487205505
1717011061716791800,27.207791748046876,0.6090326309204102,0.4789183437824249,-0.0959058403968811
1717011061756803000,27.247802978515626,0.4538728892803192,0.27061331272125244,0.06902777403593063
1717011061796811800,27.287811767578123,0.1319468915462494,-0.016493361443281174,0.04581489413976669
1717011061836787200,27.327787109375,-0.004886921960860491,0.01466076634824276,-0.192422553896904
1717011061876798500,27.367798583984374,-0.3891211748123169,0.10262536257505417,-0.028099801391363144
1717011061916807200,27.40780712890625,-0.7220427393913269,0.0024434609804302454,0.19425514340400696
1717011061956812500,27.4478125,-0.827111542224884,-0.20830504596233368,0.6841690540313721
1717011061996793600,27.487793701171874,-0.9138544201850891,-0.50335294008255,1.2681562900543213
1717011062036802000,27.527802001953123,-1.5680910348892212,-0.6383541822433472,1.3200798034667969
1717011062076838100,27.567838134765626,-1.7220290899276733,-0.5277875661849976,0.8570439219474792
1717011062116819500,27.6078193359375,-1.4233160018920898,-0.44165557622909546,0.5992587804794312
1717011062156797000,27.647796875,-1.5259413719177246,-0.4502076804637909,0.5693264007568359
1717011062196802600,27.687802490234375,-1.6022995710372925,-0.24434609711170197,-0.021380282938480377
1717011062236814600,27.727814697265625,-1.6273449659347534,0.3433062732219696,-0.5277875661849976
1717011062276792300,27.767792236328123,-1.4953981637954712,0.5143485069274902,-0.2889392673969269
1717011062316800300,27.80780029296875,-1.1184942722320557,0.10567969083786011,-0.031154127791523933
1717011062356811500,27.8478115234375,-0.5436700582504272,0.0012217304902151227,0.25595253705978394
1717011062396820000,27.887820068359375,0.07880161702632904,-0.252287358045578,0.5387831330299377
1717011062436795100,27.927795166015624,0.6872233748435974,-0.7134906053543091,0.5400048494338989
1717011062476804600,27.9678046875,1.224173903465271,-0.6004805564880371,0.10567969083786011
1717011062516815400,28.0078154296875,1.539380431175232,-0.2987131178379059,-0.46303585171699524
1717011062556790300,28.047790283203124,1.976759910583496,0.08979719132184982,-1.0500773191452026
1717011062596799700,28.0877998046875,2.182621479034424,0.5057964324951172,-1.1288789510726929
1717011062636808200,28.12780810546875,1.730581283569336,0.17959438264369965,-0.9376781582832336
1717011062676813800,28.167813720703126,1.8197675943374634,-0.15577064454555511,-1.0409144163131714
1717011062716795000,28.207794921875,1.8973474502563477,0.10812314599752426,-0.9456194043159485
1717011062756803000,28.247802978515626,1.3194689750671387,0.17776179313659668,-0.9535606503486633
1717011062796808700,28.28780859375,0.6352998614311218,0.3029891550540924,-0.5876523852348328
1717011062836789800,28.327789794921873,0.45814892649650574,0.03237585723400116,-0.29565876722335815
1717011062876798500,28.367798583984374,0.23945917189121246,-0.26633724570274353,-0.07635815441608429
1717011062916804000,28.40780419921875,0.11545353382825851,-0.36163222789764404,0.3292563557624817
1717011062956815000,28.447815185546876,-0.04764748737215996,-0.44837507605552673,0.8588765263557434
1717011062996793600,28.487793701171874,-0.28038713335990906,-0.6444628238677979,1.2027937173843384
1717011063036799000,28.527799072265626,-0.4599815309047699,-0.8051204085350037,1.5815300941467285
1717011063076810500,28.567810546875,-0.5638286471366882,-0.5674937963485718,1.5375478267669678
1717011063116821500,28.607821533203126,-0.656069278717041,-0.13805554807186127,1.6090190410614014
1717011063156793600,28.647793701171874,-1.0012081861495972,-1.0561859607696533,3.003624439239502
1717011063196805000,28.68780517578125,-1.3487904071807861,-1.4648548364639282,2.951090097427368
1717011063236814000,28.72781396484375,-1.3322970867156982,-0.7165449261665344,1.5222761631011963
1717011063276789500,28.76778955078125,-1.2113457918167114,-0.20525072515010834,1.1386528015136719
1717011063316801000,28.807801025390624,-1.1276572942733765,-0.12278391420841217,0.8741481900215149
1717011063356809700,28.847809814453125,-1.2791517972946167,-0.152105450630188,0.9248499870300293
1717011063396815000,28.887815185546874,-1.312138557434082,-0.3799581825733185,1.376279354095459
1717011063436798200,28.927798095703125,-1.0482447147369385,-0.3927863538265228,1.0500773191452026
1717011063476807000,28.967806884765626,-0.8155050873756409,-0.08552113175392151,0.5051855444908142
1717011063516812300,29.007812255859374,-0.5503895878791809,-0.05314527451992035,0.13377949595451355
1717011063556793300,29.04779345703125,-0.21991148591041565,-0.1270599663257599,-0.23151792585849762
1717011063596801800,29.0878017578125,0.2968805134296417,0.04214970022439957,-0.3903428912162781
1717011063636807400,29.127807373046874,0.7415903806686401,-0.32681289315223694,-0.3127630054950714
1717011063676819200,29.167819091796876,1.55892813205719,-0.2724458873271942,-0.6701191663742065
1717011063716795100,29.207795166015625,1.786780834197998,0.33047810196876526,-0.7116580009460449
1717011063756800500,29.247800537109374,1.46424400806427,0.4300491213798523,-0.7672467231750488
1717011063796812000,29.28781201171875,1.4569135904312134,0.07269296050071716,-0.8784242272377014
1717011063836790300,29.327790283203125,1.541213035583496,0.32681289315223694,-1.361007809638977
1717011063876795400,29.36779541015625,1.4960089921951294,1.0109820365905762,-1.8918496370315552
1717011063916807000,29.407806884765623,1.511891484260559,0.9260717034339905,-1.7983872890472412
1717011063956815400,29.4478154296875,1.4275920391082764,0.46242499351501465,-1.3048081398010254
1717011063996790800,29.487790771484374,1.3866641521453857,0.43615779280662537,-1.4624114036560059
1717011064036802000,29.527802001953123,1.3390166759490967,0.5870414972305298,-1.2180652618408203
1717011064076810800,29.567810791015624,0.9615018963813782,0.25534167885780334,-0.7159340381622314
1717011064116816400,29.60781640625,0.6762278079986572,-0.11972958594560623,-0.04214970022439957
1717011064156796700,29.647796630859375,0.39767327904701233,-0.252287358045578,0.3549126982688904
1717011064196805000,29.68780517578125,-0.015271631069481373,-0.0861319974064827,0.2938261926174164
1717011064236811300,29.727811279296876,-0.4599815309047699,0.2840523421764374,0.24129177629947662
1717011064276792300,29.767792236328123,-0.6994407176971436,0.2779437005519867,0.4434881806373596
1717011064316801000,29.807801025390624,-0.911410927772522,-0.10751228034496307,1.1954632997512817
1717011064356806400,29.847806396484376,-1.4086552858352661,-0.5167919993400574,1.663996934890747
1717011064396818000,29.88781787109375,-1.5680910348892212,-1.004873275756836,1.6365079879760742
1717011064436796000,29.9277958984375,-1.4569135904312134,-0.9773843884468079,1.4501941204071045
1717011064476868400,29.967868408203124,-1.5894713401794434,-0.5277875661849976,1.1575896739959717
1717011064517151700,30.00815185546875,-1.5894713401794434,-0.5277875661849976,1.1575896739959717
1717011064557160200,30.04816015625,-2.012800931930542,-0.33108896017074585,1.1178834438323975
1717011064597140500,30.088140380859375,-1.9120081663131714,-0.3390302062034607,1.0268645286560059
1717011064637148700,30.128148681640624,-1.5949691534042358,-0.23518311977386475,0.921795666217804
1717011064677157400,30.168157470703125,-1.2516628503799438,-0.2816088795661926,0.8600982427597046
1717011064717135000,30.208135009765623,-0.7165449261665344,-0.4202753007411957,0.8924741148948669
1717011064757143800,30.248143798828124,-0.182648703455925,-0.4703662395477295,0.7678576111793518
1717011064797152300,30.28815234375,0.3695734739303589,-0.28527405858039856,0.4996877610683441
1717011064837161000,30.328160888671874,0.799011766910553,-0.13866640627384186,0.35613444447517395
1717011064877139200,30.36813916015625,1.3164145946502686,-0.11972958594560623,0.09651670604944229
1717011064917145600,30.4081455078125,1.8991800546646118,0.17104226350784302,-0.09834930300712585
1717011064957153300,30.4481533203125,1.9914207458496094,0.3952298164367676,0.1716531366109848
1717011064997712000,30.4887119140625,1.9914207458496094,0.3952298164367676,0.1716531366109848
1717011065038300400,30.529300537109375,1.9914207458496094,0.3952298164367676,0.1716531366109848
1717011065078308900,30.569308837890624,2.0415115356445312,-0.5259549617767334,1.047023057937622
1717011065118286800,30.609286865234374,1.8686367273330688,-0.4703662395477295,0.7843509912490845
1717011065168854000,30.65985400390625,1.703092336654663,-0.6090326309204102,0.6798930168151855
1717011065208862500,30.699862548828126,1.703092336654663,-0.6090326309204102,0.6798930168151855
1717011065248837600,30.739837646484375,0.7513642311096191,-0.513126790523529,0.7195992469787598
1717011065288849400,30.779849365234377,0.43615779280662537,-0.7330383062362671,1.0396926403045654
1717011065328858000,30.819858154296874,0.13316862285137177,-0.9388998746871948,1.3072515726089478
1717011065368833000,30.8598330078125,-0.2076941877603531,-0.9871582388877869,1.3451253175735474
1717011065408844500,30.899844482421877,-0.5198463201522827,-0.8002334833145142,1.2217304706573486
1717011065448853000,30.93985302734375,-0.9248499870300293,-0.5369505286216736,0.9749409556388855
1717011065488859000,30.97985888671875,-1.29381263256073,-0.2620611786842346,0.6670648455619812
1717011065528840000,31.01983984375,-1.303586483001709,0.030543262138962746,0.45204028487205505
1717011065568848400,31.059848388671874,-1.3194689750671387,-0.02871066704392433,0.7745771408081055
1717011065608854000,31.09985400390625,-1.4966198205947876,-0.6829473376274109,1.635897159576416
1717011065648834800,31.139834716796877,-1.2412781715393066,-0.9566149711608887,2.040900707244873
1717011065688843500,31.179843505859374,-0.9615018963813782,-0.7727445363998413,1.777006983757019
1717011065728849000,31.219848876953126,-0.9669997096061707,-0.5546656250953674,1.6059647798538208
1717011065768860400,31.2598603515625,-1.2602150440216064,-0.6572909951210022,1.693318486213684
1717011065808838400,31.29983837890625,-1.4208725690841675,-0.7214318513870239,1.5766432285308838
1717011065848844000,31.339843994140626,-1.5063936710357666,-0.5858197808265686,1.3390166759490967
1717011065888855600,31.37985546875,-1.246165156364441,-0.2632829248905182,0.7959573864936829
1717011065928864300,31.4198642578125,-0.940121591091156,-0.07147123664617538,0.16249015927314758
1717011065968841700,31.459841796875,-0.6731734871864319,-0.12889257073402405,-0.00733038317412138
1717011066008851000,31.499850830078124,-0.34758231043815613,0.03237585723400116,-0.01710422709584236
1717011066048861700,31.53986181640625,0.005497787147760391,0.0757472887635231,-0.06414084881544113
1717011066088836600,31.579836669921875,0.5949827432632446,0.2577851414680481,0.18325957655906677
1717011066128845800,31.619845703125,0.9657779335975647,0.26939156651496887,0.3323107063770294
1717011066168854000,31.65985400390625,1.0873401165008545,0.08796459436416626,0.6737843751907349
1717011066208861700,31.69986181640625,1.2693779468536377,-0.27977627515792847,0.475253164768219
1717011066248841000,31.739841064453124,1.7971655130386353,0.10506882518529892,0.42760565876960754
1717011066288849700,31.779849609375,2.0219640731811523,0.14233160018920898,0.6695083379745483
1717011066328855000,31.81985498046875,2.0592267513275146,-0.28955012559890747,1.0793988704681396
1717011066368836000,31.859836181640624,1.9101755619049072,-0.5229006409645081,0.941343367099762
1717011066408844800,31.8998447265625,1.6560556888580322,-0.28527405858039856,0.53328537940979
1717011066448850200,31.93985009765625,1.2889256477355957,-0.22113321721553802,0.4343251883983612
1717011066488861700,31.97986181640625,0.9724974632263184,-0.31093040108680725,0.5827654600143433
1717011066528839700,32.01983959960938,0.645684540271759,-0.2675589919090271,0.5815436840057373
1717011066568845300,32.05984521484375,0.43188172578811646,-0.31031954288482666,0.44776421785354614
1717011066608856800,32.09985693359375,0.2883284091949463,-0.5106833577156067,0.46242499351501465
1717011066648834800,32.13983471679688,0.01038470957428217,-0.36713001132011414,0.3646865487098694
1717011066688840400,32.17984033203125,-0.3536909818649292,-0.1466076523065567,0.5198463201522827
1717011066728852000,32.21985205078125,-0.46242499351501465,-0.35246923565864563,0.9486737251281738
1717011066768860400,32.2598603515625,-0.7055493593215942,-0.685390830039978,1.6126842498779297
1717011066808835600,32.29983569335938,-1.2986994981765747,-0.7941248416900635,1.5143349170684814
1717011066848846800,32.33984692382813,-1.4355332851409912,-0.9450085163116455,1.490511178970337
1717011066888855600,32.37985546875,-1.3817771673202515,-0.9492846131324768,1.2877039909362793
1717011066928861200,32.41986108398437,-1.4660766124725342,-0.5186246037483215,0.7971791625022888
1717011066968842200,32.45984228515625,-1.8527542352676392,-0.13988813757896423,0.48258355259895325
1717011067008851000,32.499850830078124,-2.0079140663146973,-0.25534167885780334,0.5473352670669556
1717011067048858600,32.539858642578125,-2.0079140663146973,-0.4550946056842804,0.6579018831253052
1717011067088839400,32.57983935546875,-1.8442021608352661,-0.4050036668777466,0.5632177591323853
1717011067128848100,32.61984814453125,-1.541213035583496,-0.2382374405860901,0.3830125033855438
1717011067168853000,32.65985302734375,-1.0506882667541504,-0.1814269721508026,0.19792033731937408
1717011067208864800,32.69986474609375,-0.29077184200286865,-0.06963863968849182,0.018325956538319588
1717011067248843500,32.739843505859376,0.3170390725135803,0.0403171069920063,-0.056810468435287476
1717011067288848600,32.7798486328125,0.9437867999076843,-0.1215621829032898,-0.09651670604944229
1717011067328860200,32.819860107421874,1.5460999011993408,0.04886921867728233,-0.5106833577156067
1717011067368836400,32.85983642578125,1.6578882932662964,0.50335294008255,-0.7086036801338196
1717011067408843800,32.89984375,1.6597208976745605,0.2785545587539673,-0.608421802520752
1717011067448853200,32.939853271484374,2.101376533508301,0.2370157092809677,-0.27061331272125244
1717011067488862000,32.97986206054688,2.2229385375976562,0.29626965522766113,-0.1869247704744339
1717011067528837000,33.019837158203124,2.1154263019561768,0.44776421785354614,-0.029932396486401558
1717011067568848400,33.059848388671874,2.052507162094116,0.2828305959701538,-0.05253441259264946
1717011067608857000,33.09985717773438,1.89979088306427,0.12339477986097336,-0.08124507963657379
1717011067648831700,33.13983178710937,1.6273449659347534,0.2370157092809677,-0.18936823308467865
1717011067688843500,33.179843505859374,1.2327260971069336,0.1918116807937622,-0.09651670604944229
1717011067728852000,33.21985205078125,0.6939429044723511,0.1771509200334549,-0.08368854224681854
1717011067768857600,33.25985766601563,0.2724458873271942,0.39706242084503174,-0.06414084881544113
1717011067808838400,33.29983837890625,-0.13011430203914642,0.12828169763088226,-0.1716531366109848
1717011067848847000,33.33984716796875,-0.675616979598999,0.34147366881370544,-0.5564982295036316
1717011067888852700,33.37985278320313,-1.0604621171951294,0.8674286603927612,-0.6841690540313721
1717011067928864500,33.41986450195313,-1.19607412815094,0.5076290369033813,-0.21441370248794556
1717011067968842200,33.45984228515625,-1.5766432285308838,-0.294437050819397,0.4954117238521576
1717011068008848000,33.49984790039063,-1.8026633262634277,-0.33658674359321594,0.513737678527832
1717011068048859400,33.539859375,-1.8313740491867065,-0.4538728892803192,0.523511528968811
1717011068088837600,33.57983764648438,-1.8961256742477417,-0.304210901260376,0.32498031854629517
1717011068128843300,33.61984326171875,-2.1313087940216064,0.054367005825042725,0.23090706765651703
1717011068168856000,33.65985595703125,-2.185675859451294,0.033597588539123535,0.25473082065582275
1717011068208864800,33.69986474609375,-1.974927306175232,-0.18509216606616974,0.45753806829452515
1717011068248840200,33.73984008789063,-1.6743816137313843,-0.31093040108680725,0.48747047781944275
1717011068288851700,33.77985180664062,-1.2760975360870361,-0.2981022298336029,0.4306600093841553
1717011068328860200,33.819860107421874,-0.827111542224884,-0.35063666105270386,0.28038713335990906
1717011068368835300,33.85983544921875,-0.2993239760398865,-0.3390302062034607,-0.09407325088977814
1717011068408846600,33.8998466796875,0.28038713335990906,-0.009773843921720982,-0.47280970215797424
1717011068448855300,33.939855224609374,0.7000515460968018,0.060475658625364304,-0.6548475623130798
1717011068488861000,33.97986083984375,1.166752576828003,-0.060475658625364304,-0.79840087890625
1717011068528842000,34.01984204101562,1.7360789775848389,0.02382374368607998,-0.8491026759147644
1717011068568848400,34.059848388671874,1.9321668148040771,0.35124751925468445,-1.1966849565505981
1717011068608856300,34.099856201171875,1.8411478996276855,0.2932153046131134,-1.341460108757019
1717011068648837000,34.13983715820312,2.241264581680298,0.1472185254096985,-1.0781772136688232
1717011068688843500,34.179843505859374,2.4721715450286865,0.2736676335334778,-1.2651019096374512
1717011068728849200,34.21984912109375,2.4196372032165527,0.7531968355178833,-1.36650550365448
1717011068768860400,34.2598603515625,2.1429152488708496,0.3988949954509735,-0.778853178024292
1717011068808838700,34.299838623046874,1.7641788721084595,-0.016493361443281174,-0.26145032048225403
1717011068848844300,34.33984423828125,1.4569135904312134,0.323147714138031,-0.5894849896430969
1717011068888855600,34.37985546875,1.0671815872192383,0.8869763612747192,-1.158811330795288
1717011068928864000,34.41986401367188,0.817948579788208,1.0561859607696533,-1.4031574726104736
1717011068968839200,34.45983911132812,0.6536257863044739,0.7489207983016968,-0.8643743395805359
1717011069008851000,34.499850830078124,0.3072652220726013,0.22357667982578278,-0.07269296050071716
1717011069048859100,34.53985913085938,-0.07819075137376785,-0.08307767659425735,0.6163630485534668
1717011069088834000,34.579833984375,-0.9706648588180542,0.22052235901355743,0.6572909951210022
1717011069128846000,34.61984619140625,-1.5638149976730347,0.3549126982688904,0.4282165467739105
1717011069168854000,34.65985400390625,-1.95965576171875,0.042760565876960754,0.8087855577468872
1717011069208859600,34.699859619140625,-2.0054705142974854,-0.6401867866516113,1.3628404140472412
1717011069248841000,34.739841064453124,-1.977981686592102,-1.156978726387024,1.804495930671692
1717011069288849700,34.779849609375,-2.1172590255737305,-0.912021815776825,1.5008958578109741
1717011069328855000,34.81985498046875,-2.4086415767669678,-0.5259549617767334,0.9627236127853394
1717011069368838400,34.85983837890625,-2.49294114112854,-0.34574973583221436,0.6994407176971436
1717011069408846800,34.89984692382812,-2.37321138381958,-0.3433062732219696,0.6505714654922485
1717011069448852500,34.9398525390625,-2.152078151702881,-0.4502076804637909,0.656069278717041
1717011069488863700,34.97986376953125,-1.855197787284851,-0.4306600093841553,0.5778785347938538
1717011069528842000,35.01984204101562,-1.4831807613372803,-0.33169981837272644,0.4300491213798523
1717011069568847600,35.05984765625,-0.7776314616203308,-0.3219259977340698,0.18509216606616974
1717011069608859100,35.09985913085937,-0.07269296050071716,-0.2021963894367218,0.08552113175392151
1717011069648836900,35.1398369140625,0.6633996367454529,-0.23640485107898712,-0.32009339332580566
1717011069688842500,35.17984252929688,1.33168625831604,0.10018189996480942,-0.4856378734111786
1717011069728852000,35.21985205078125,1.5748106241226196,0.2736676335334778,-0.7470881938934326
1717011069768860700,35.259860595703124,1.5919147729873657,0.3274237811565399,-0.7721336483955383
1717011069808838000,35.299837890625,1.7757853269577026,0.09896016865968704,-0.7116580009460449
1717011069848847400,35.33984741210938,2.14902400970459,0.13927727937698364,-0.7971791625022888
1717011069888855800,35.379855712890624,2.403143882751465,0.5516113042831421,-1.0280861854553223
1717011069928861400,35.419861328125,2.2064452171325684,0.66584312915802,-1.015868902206421
1717011069968842200,35.45984228515625,1.8735237121582031,0.5253441333770752,-1.0653489828109741
1717011070008851000,35.499850830078124,1.6126842498779297,0.4703662395477295,-0.9651671051979065
1717011070048856000,35.53985595703125,1.359175205230713,0.5125159621238708,-0.931569516658783
1717011070088837400,35.57983740234375,0.99876469373703,0.494189977645874,-0.8185594081878662
1717011070128845800,35.619845703125,0.5736024379730225,0.5858197808265686,-0.694553792476654
1717011070168850700,35.6598505859375,0.20097467303276062,0.4691445231437683,-0.4703662395477295
1717011070208862200,35.6998623046875,-0.12217304855585098,0.4392121136188507,-0.31642818450927734
1717011070248840700,35.7398408203125,-0.48869219422340393,0.7110471725463867,-0.4648684561252594
1717011070289283600,35.78028369140625,-0.7336491346359253,0.8411614298820496,-0.4893030524253845
1717011070329752000,35.820751953125,-0.7336491346359253,0.8411614298820496,-0.4893030524253845
1717011070369760500,35.86076049804687,-1.5436564683914185,0.6096435189247131,0.14844025671482086
1717011070409738500,35.90073852539062,-1.642616629600525,0.1014036312699318,0.7226535677909851
1717011070449747200,35.94074731445313,-1.683544635772705,-0.6627888083457947,1.0005972385406494
1717011070489755600,35.98075561523437,-1.4899003505706787,-0.4141666293144226,0.24495697021484375
1717011070529733600,36.02073364257812,-1.4734070301055908,0.646906316280365,-0.7800748944282532
1717011070569742000,36.0607421875,-1.624901533126831,0.617584764957428,-0.8924741148948669
1717011070609750800,36.10075073242187,-1.5906931161880493,0.036651913076639175,-0.38179078698158264
1717011070649759200,36.14075927734375,-1.2901474237442017,-0.048258353024721146,0.02626720629632473
1717011070689737200,36.1807373046875,-0.8399397134780884,-0.20097467303276062,0.039706241339445114
1717011070729746000,36.22074584960937,-0.2871066629886627,-0.33108896017074585,-0.20463985204696655
1717011070769754400,36.26075439453125,0.11667526513338089,-0.27122417092323303,-0.607810914516449
1717011070809732400,36.300732421875,0.2877175211906433,-0.2981022298336029,-0.7672467231750488
1717011070849741000,36.34074096679687,0.6627888083457947,-0.2223549485206604,-0.9126327037811279
1717011070889749500,36.38074951171875,0.9175195693969727,-0.5283984541893005,-1.1252137422561646
1717011070929758200,36.42075830078125,1.0891727209091187,-0.12095131725072861,-1.803274154663086
1717011070969736200,36.46073608398437,0.8344419002532959,0.5815436840057373,-2.2876904010772705
1717011071009744600,36.50074462890625,1.0122036933898926,0.5308418869972229,-2.378098487854004
1717011071049753300,36.54075341796875,1.3573426008224487,0.4960225820541382,-2.1087067127227783
1717011071089761500,36.580761474609375,1.3029755353927612,0.8307767510414124,-2.2040019035339355
1717011071129739800,36.62073974609375,1.189354658126831,1.053742527961731,-2.2321016788482666
1717011071169748200,36.66074829101562,1.2296717166900635,0.856433093547821,-2.2272145748138428
1717011071209756700,36.700756591796875,1.2064588069915771,0.8429940342903137,-2.355496406555176
1717011071249735000,36.74073486328125,1.1020009517669678,1.207069754600525,-2.602285861968994
1717011071289743400,36.78074340820312,0.8002334833145142,1.635897159576416,-2.7097983360290527
1717011071329752000,36.820751953125,0.6450737118721008,1.8655824661254883,-2.687807083129883
1717011071369760500,36.86076049804687,0.42271876335144043,1.5974125862121582,-1.9694294929504395
1717011071409738500,36.90073852539062,0.05375614017248154,1.13926362991333,-1.4856243133544922
1717011071449747200,36.94074731445313,-0.0910189226269722,1.3335188627243042,-1.4844025373458862
1717011071489755600,36.98075561523437,-0.3597996234893799,1.470963478088379,-1.3347405195236206
1717011071529733600,37.02073364257812,-0.8210029006004333,1.3823879957199097,-0.8350527882575989
1717011071569742000,37.0607421875,-1.3060299158096313,1.1349875926971436,-0.11423180252313614
1717011071609750800,37.10075073242187,-1.6316211223602295,0.5937610268592834,-0.08674286305904388
1717011071649759200,37.14075927734375,-1.587027907371521,0.5229006409645081,-0.8790351152420044
1717011071689737200,37.1807373046875,-1.445918083190918,0.8900306820869446,-1.254717230796814
1717011071740272600,37.231272705078126,-1.4288138151168823,0.769690215587616,-1.1032226085662842
1717011071780278500,37.27127856445313,-1.4288138151168823,0.769690215587616,-1.1032226085662842
1717011071820259300,37.31125927734375,-1.378722906112671,0.00855211354792118,-0.5302310585975647
1717011071860267800,37.351267822265626,-1.379333734512329,0.19547687470912933,-0.7342600226402283
1717011071900275500,37.391275390625,-1.2974777221679688,0.3390302062034607,-1.1355985403060913
1717011071940256300,37.43125634765625,-0.9731083512306213,0.5485569834709167,-1.813048005104065
1717011071980265000,37.47126489257813,-0.5326744914054871,0.3500257730484009,-1.8582520484924316
1717011072020270300,37.511270263671875,0.07208210229873657,-0.20586158335208893,-1.651168704032898
1717011072060282000,37.5512822265625,0.7269296646118164,-0.18448130786418915,-1.7983872890472412
1717011072100260400,37.59126025390625,1.0879509449005127,-0.2687807083129883,-1.945605754852295
1717011072140265000,37.63126489257812,1.5454890727996826,-0.4098905920982361,-2.447736978530884
1717011072180274400,37.6712744140625,1.4300355911254883,0.6322455406188965,-2.364048480987549
1717011072220252700,37.711252685546874,0.8344419002532959,0.6640105247497559,-1.7959438562393188
1717011072260258600,37.751258544921875,1.024420976638794,-0.06963863968849182,-1.5497651100158691
1717011072300270000,37.79127001953125,1.140485405921936,0.11178833991289139,-1.5986343622207642
1717011072340278500,37.83127856445312,0.9224064946174622,0.8148942589759827,-2.05433988571167
1717011072380253700,37.871253662109375,0.9553932547569275,0.9108000993728638,-1.6811012029647827
1717011072420265200,37.91126513671875,1.054964303970337,0.523511528968811,-1.1997393369674683
1717011072460274000,37.95127392578125,1.2498302459716797,0.4703662395477295,-1.2779301404953003
1717011072500279300,37.991279296875,1.0800096988677979,0.8332201838493347,-1.4831807613372803
1717011072540260400,38.03126025390625,0.47708576917648315,1.1948524713516235,-1.6218472719192505
1717011072580268800,38.07126879882812,-0.10445795953273773,1.036027431488037,-0.9065240025520325
1717011072620274400,38.1112744140625,-0.19792033731937408,0.7733554244041443,-0.30970868468284607
1717011072660255500,38.15125537109375,-0.2382374405860901,0.5962044596672058,-0.2015855312347412
1717011072700264000,38.19126391601562,-0.32681289315223694,0.5797111392021179,-0.17348572611808777
1717011072740269600,38.23126953125,-0.6743952035903931,0.4990769028663635,-0.17592918872833252
1717011072780281300,38.27128125,-0.8655960559844971,0.375071257352829,0.18936823308467865
1717011072820259300,38.31125927734375,-1.1789699792861938,0.016493361443281174,0.8698720932006836
1717011072860265000,38.35126489257812,-1.3939944505691528,-0.7476990818977356,1.1484266519546509
1717011072900276500,38.3912763671875,-1.2626584768295288,-0.9468411207199097,1.0751228332519531
1717011072940254500,38.43125439453125,-1.3078625202178955,-0.7367035150527954,1.156978726387024
1717011072980260400,38.47126025390625,-1.5864170789718628,-0.6426302194595337,1.092837929725647
1717011073020271400,38.51127124023437,-1.6401731967926025,-0.40683624148368835,0.7415903806686401
1717011073060282000,38.5512822265625,-1.5454890727996826,-0.1612684279680252,0.7098253965377808
1717011073100257500,38.591257568359374,-1.273043155670166,-0.2926044464111328,0.9162978529930115
1717011073140268000,38.63126806640625,-0.8869763612747192,-0.6340781450271606,0.9260717034339905
1717011073180276700,38.67127685546875,-0.46547931432724,-0.27488934993743896,0.5363397002220154
1717011073220251600,38.71125170898438,-0.0910189226269722,-0.13805554807186127,0.08002334833145142
1717011073260263700,38.751263671875,0.6023131608963013,-0.182648703455925,-0.2981022298336029
1717011073300272600,38.79127270507813,1.3078625202178955,-0.13439035415649414,-0.8240572214126587
1717011073340278300,38.8312783203125,1.7611244916915894,0.21807889640331268,-1.4141530990600586
1717011073380257000,38.871257080078124,1.9236146211624146,1.1441506147384644,-1.4563027620315552
1717011073420265200,38.91126513671875,1.557706356048584,0.4813618063926697,-0.8985827565193176
1717011073460271000,38.95127099609375,1.833817481994629,-0.5302310585975647,0.09834930300712585
1717011073500283000,38.99128295898438,1.7458528280258179,-0.50335294008255,-0.0006108652451075613
1717011073540260600,39.031260498046876,1.2626584768295288,0.5253441333770752,-0.47219884395599365
1717011073580266000,39.071265869140625,1.0696250200271606,0.4795292317867279,-0.30482175946235657
1717011073620277500,39.111277587890626,0.9969320893287659,-0.26083946228027344,0.02871066704392433
1717011073660255700,39.151255859375,0.8961393237113953,-0.2174680233001709,-0.1160643994808197
1717011073700261000,39.19126123046875,0.6414085030555725,0.12400564551353455,-0.1918116807937622
1717011073740272600,39.231272705078126,0.3084869384765625,-0.21930062770843506,0.16554448008537292
1717011073780280800,39.27128076171875,0.003054326167330146,-0.5400048494338989,0.4764748811721802
1717011073820256000,39.311256103515625,-0.3481931984424591,-0.45142942667007446,0.43737950921058655
1717011073860267800,39.351267822265626,-0.7739662528038025,-0.009162978269159794,0.24129177629947662
1717011073900276500,39.3912763671875,-1.158811330795288,0.1814269721508026,0.4080579876899719
1717011073940251400,39.43125146484375,-0.9425650835037231,-0.313373863697052,1.4367550611495972
1717011073980262700,39.4712626953125,-1.004873275756836,-0.8362745046615601,2.1306979656219482
1717011074020271000,39.51127099609375,-1.2760975360870361,-1.0494664907455444,1.9058995246887207
1717011074060277000,39.55127709960937,-1.187522053718567,-1.1801916360855103,1.624901533126831
1717011074100258000,39.591258056640626,-1.130711555480957,-1.0128145217895508,1.4538593292236328
1717011074140265700,39.631265625,-1.397048830986023,-0.5485569834709167,1.0305296182632446
1717011074180272000,39.67127221679687,-1.6676621437072754,-0.3225368559360504,0.8570439219474792
1717011074220255000,39.7112548828125,-1.6694947481155396,-0.4343251883983612,1.0067058801651
1717011074260263700,39.751263671875,-1.4972307682037354,-0.45814892649650574,0.8839219808578491
1717011074300269600,39.79126953125,-1.1105530261993408,-0.22663100063800812,0.6053674817085266
1717011074340280800,39.83128076171875,-0.6633996367454529,-0.22479841113090515,0.6866125464439392
1717011074380258800,39.8712587890625,-0.12339477986097336,-0.4043927788734436,0.5968153476715088
1717011074420264200,39.91126416015625,0.46181413531303406,-0.26083946228027344,0.31520646810531616
1717011074460276000,39.95127587890625,0.8796459436416626,0.06169738993048668,0.00855211354792118
1717011074500284700,39.99128466796875,1.263269305229187,0.1062905490398407,-0.30054569244384766
1717011074540257500,40.03125756835937,1.6927075386047363,0.5064072608947754,-0.7116580009460449
1717011074580269000,40.07126904296875,1.6633861064910889,0.8796459436416626,-0.6798930168151855
1717011074620277500,40.111277587890626,1.4410310983657837,0.46303585171699524,-0.44654250144958496
1717011074660252700,40.15125268554687,1.6303993463516235,0.13439035415649414,-0.09834930300712585
1717011074700264200,40.19126416015625,1.6768250465393066,0.18509216606616974,-0.12339477986097336
1717011074740272600,40.231272705078126,1.4575244188308716,0.6743952035903931,-0.37568211555480957
1717011074780278300,40.2712783203125,1.3255776166915894,0.6053674817085266,-0.35124751925468445
1717011074820259300,40.31125927734375,1.3017538785934448,0.2877175211906433,-0.15332718193531036
1717011074860268000,40.35126806640625,1.226617455482483,0.05803219974040985,0.01771509274840355
1717011074900273700,40.39127368164063,1.0659598112106323,0.022602014243602753,0.06475171446800232
1717011074940254500,40.43125439453125,0.607810914516449,0.025656340643763542,0.05742133408784866
1717011074980263200,40.47126318359375,0.28955012559890747,0.09162978827953339,0.059864792972803116
1717011075020268300,40.511268310546875,-0.01160643994808197,-0.010995574295520782,0.18570303916931152
1717011075060280000,40.551280029296876,-0.45875978469848633,0.02015855349600315,0.04948008432984352
1717011075100258300,40.59125830078125,-0.8258898258209229,0.2125810980796814,-0.039706241339445114
1717011075140263000,40.63126293945312,-1.2272282838821411,0.21930062770843506,0.2474004179239273
1717011075180274700,40.671274658203124,-1.7727309465408325,-0.20463985204696655,0.5222898125648499
1717011075220253000,40.7112529296875,-1.9694294929504395,-0.6420193910598755,0.7849618196487427
1717011075260261000,40.75126123046875,-1.9938641786575317,-0.8906415104866028,0.9462302923202515
1717011075300272600,40.79127270507813,-2.0580050945281982,-0.7318165898323059,0.7819074988365173
1717011075340281000,40.831281005859374,-2.1093177795410156,-0.4086688458919525,0.5955936312675476
1717011075380256000,40.87125610351563,-2.132530689239502,-0.3854559659957886,0.5467243790626526
1717011075420267500,40.911267578125,-1.9969184398651123,-0.5198463201522827,0.6572909951210022
1717011075460276000,40.95127587890625,-1.7556266784667969,-0.6743952035903931,0.5668829679489136
1717011075500281900,40.99128173828125,-1.423926830291748,-0.598647952079773,0.28649580478668213
1717011075540262700,41.0312626953125,-0.9908234477043152,-0.34208452701568604,-0.042760565876960754
1717011075580271000,41.07127099609375,-0.27122417092323303,-0.23335053026676178,-0.46853363513946533
1717011075620276700,41.11127685546875,0.5400048494338989,0.04153883829712868,-0.788016140460968
1717011075660257500,41.15125756835938,1.1606439352035522,0.08124507963657379,-1.1496484279632568
1717011075700266500,41.1912666015625,1.8796323537826538,0.3017674386501312,-1.500285029411316
1717011075740269600,41.23126953125,2.2174408435821533,0.8967501521110535,-1.5906931161880493
1717011075780283400,41.271283447265624,2.0305161476135254,0.8032878041267395,-1.3017538785934448
1717011075820261600,41.31126171875,2.3658812046051025,0.2272418737411499,-1.073290228843689
1717011075860265000,41.35126489257812,2.615725040435791,0.19120082259178162,-1.1264355182647705
1717011075900276500,41.3912763671875,2.2009475231170654,1.0250319242477417,-1.5717562437057495
1717011075940254500,41.43125439453125,1.6701055765151978,1.444696307182312,-1.6597208976745605
1717011075980260000,41.47126000976562,1.5558737516403198,0.950506329536438,-1.36650550365448
1717011076020271600,41.511271728515624,1.4599679708480835,0.59803706407547,-1.0494664907455444
1717011076060280000,41.551280029296876,1.2651019096374512,0.750142514705658,-0.8607091307640076
1717011076100255500,41.59125537109375,0.8118399381637573,0.770301103591919,-0.6114761233329773
1717011076140266000,41.63126586914063,0.48747047781944275,0.5473352670669556,-0.21135938167572021
1717011076180274400,41.6712744140625,0.1459967941045761,0.4086688458919525,0.15821409225463867
1717011076220249900,41.71124975585938,-0.4245513379573822,0.39645153284072876,0.18448130786418915
1717011076260262000,41.751261962890624,-0.8961393237113953,0.7269296646118164,-0.23640485107898712
1717011076300270600,41.7912705078125,-1.2779301404953003,0.9859365224838257,-0.28649580478668213
1717011076340276000,41.83127587890625,-1.7904460430145264,0.6957755088806152,0.3090978264808655
1717011076380257000,41.871257080078124,-2.2284364700317383,0.059864792972803116,0.7843509912490845
1717011076420267800,41.91126782226563,-2.308459758758545,-0.6157521605491638,1.2400563955307007
1717011076460273000,41.95127294921875,-2.344500780105591,-0.7250970602035522,1.0213667154312134
1717011076500284700,41.99128466796875,-2.3512203693389893,-0.31154128909111023,0.5418374538421631
1717011076540262700,42.0312626953125,-2.3860397338867188,-0.27611109614372253,0.33047810196876526
1717011076580268300,42.07126831054688,-2.101987361907959,-0.3090978264808655,0.1514945775270462
1717011076620279800,42.11127978515625,-1.5919147729873657,-0.31520646810531616,0.10384709388017654
1717011076660257800,42.1512578125,-1.0671815872192383,-0.3995058834552765,-0.05314527451992035
1717011076700263400,42.19126342773438,-0.5705481171607971,-0.35552358627319336,-0.44226643443107605
1717011076740274700,42.23127465820313,-0.02382374368607998,-0.0806342139840126,-0.9272934198379517
1717011076780283100,42.271283203125,0.6133087277412415,0.17959438264369965,-1.205847978591919
1717011076820258300,42.31125830078125,1.0629055500030518,0.1661553531885147,-1.301142930984497
1717011076859850200,42.35085034179688,1.4477506875991821,0.1875356286764145,-1.55892813205719
1717011076899858400,42.3908583984375,1.6016886234283447,0.1973094791173935,-1.8087719678878784
1717011076940414700,42.43141479492188,2.2437081336975098,0.8802568316459656,-2.7708847522735596
1717011076980423200,42.47142309570312,1.7354681491851807,1.1282681226730347,-2.4275784492492676
1717011077020434000,42.51143383789063,1.568701982498169,0.5864306092262268,-1.7409659624099731
1717011077060410000,42.55141015625,1.6853772401809692,-0.06719517707824707,-1.340238332748413
1717011077100418600,42.59141845703125,1.4110987186431885,0.588874101638794,-1.778228759765625
1717011077140426200,42.63142626953125,0.9731083512306213,1.5583171844482422,-2.2797491550445557
1717011077180435200,42.67143530273437,0.7446447610855103,1.518610954284668,-2.298074960708618
1717011077220413200,42.7114130859375,0.6963863968849182,1.0170906782150269,-1.9675970077514648
1717011077260422000,42.751421875,0.7055493593215942,0.970054030418396,-1.7592918872833252
1717011077300430800,42.791430908203125,0.646295428276062,1.102611780166626,-1.6139060258865356
1717011077340408600,42.83140869140625,0.4337143301963806,1.1343767642974854,-1.3213015794754028
1717011077380417000,42.8714169921875,0.23518311977386475,1.1429288387298584,-1.0684033632278442
1717011077420426000,42.911426025390625,-0.23090706765651703,1.014647126197815,-0.5186246037483215
1717011077460434400,42.95143432617188,-0.5571091175079346,1.0170906782150269,-0.29077184200286865
1717011077500412400,42.99141235351563,-0.9279043078422546,1.1484266519546509,-0.07513642311096191
1717011077540421000,43.031421142578125,-1.4355332851409912,1.1270463466644287,0.33047810196876526
1717011077580429600,43.0714296875,-1.8008307218551636,0.6579018831253052,1.2125675678253174
1717011077620409600,43.11140966796875,-1.8020524978637695,-0.3286454975605011,1.4465289115905762
1717011077670977300,43.161977294921876,-1.6920967102050781,-0.7342600226402283,1.303586483001709
1717011077710986000,43.20198608398437,-1.6920967102050781,-0.7342600226402283,1.303586483001709
1717011077750961000,43.2419609375,-1.5564846992492676,-0.1508837193250656,0.5345070958137512
1717011077790972400,43.281972412109376,-1.2932016849517822,-0.3072652220726013,0.513737678527832
1717011077830981000,43.32198120117187,-0.9272934198379517,-0.48747047781944275,0.2217440903186798
1717011077870956000,43.3619560546875,-0.6695083379745483,-0.28466320037841797,-0.24495697021484375
1717011077910967600,43.401967529296876,-0.49296826124191284,0.018936822190880775,-0.598647952079773
1717011077950976000,43.44197607421875,-0.16493362188339233,0.08246681094169617,-0.8472700715065002
1717011077990981600,43.48198168945312,0.21135938167572021,0.12828169763088226,-1.0299187898635864
1717011078030962400,43.52196240234375,0.6866125464439392,0.3237585723400116,-1.1197160482406616
1717011078071001600,43.562001708984376,1.158811330795288,0.20036379992961884,-1.072068452835083
1717011078110977000,43.60197705078125,1.6829338073730469,0.00733038317412138,-1.3628404140472412
1717011078150955500,43.64195556640625,2.0415115356445312,0.5174028873443604,-1.528384804725647
1717011078190963700,43.681963623046876,1.719585657119751,0.6206390857696533,-1.719585657119751
1717011078230969600,43.721969482421876,1.7983872890472412,0.3078760802745819,-1.357953429222107
1717011078270981400,43.7619814453125,1.6969836950302124,-0.00366519158706069,-1.0836749076843262
1717011078310959400,43.80195947265625,1.1850786209106445,0.5424483418464661,-1.244943380355835
1717011078350964700,43.84196484375,0.627358615398407,0.5369505286216736,-0.8680394887924194
1717011078390976500,43.8819765625,0.38606682419776917,0.19425514340400696,-0.665232241153717
1717011078430984700,43.92198461914062,0.19120082259178162,0.2889392673969269,-0.5564982295036316
1717011078470959900,43.9619599609375,-0.045204028487205505,0.33719760179519653,-0.4642575979232788
1717011078510971100,44.00197119140625,-0.2535090744495392,0.22357667982578278,-0.08857546001672745
1717011078550980000,44.04197998046875,-0.35674530267715454,-0.08735372871160507,0.16920967400074005
1717011078590955300,44.08195532226563,-0.6230825781822205,-0.1966986060142517,0.2528982162475586
1717011078630966500,44.12196655273438,-0.8631525635719299,-0.1814269721508026,0.2278527319431305
1717011078670975200,44.161975341796875,-0.8625417351722717,-0.6994407176971436,0.5723807215690613
1717011078710980900,44.20198095703125,-1.2376129627227783,-0.7409795522689819,1.3096951246261597
1717011078750961700,44.24196166992188,-1.6016886234283447,-0.5876523852348328,1.4813482761383057
1717011078790972400,44.281972412109376,-1.8411478996276855,-0.7733554244041443,1.3249666690826416
1717011078830978000,44.32197802734375,-1.576032280921936,-0.2278527319431305,0.7336491346359253
1717011078870957000,44.36195703125,-1.368949055671692,0.36224308609962463,0.1264491081237793
1717011078910967800,44.4019677734375,-1.3457361459732056,0.5687155723571777,0.16249015927314758
1717011078950973200,44.44197314453125,-1.2571606636047363,0.39584067463874817,0.455705463886261
1717011078990984700,44.481984619140626,-0.99876469373703,0.1569923609495163,0.6811147332191467
1717011079030963000,44.521962890625,-0.7116580009460449,0.05314527451992035,0.7861835956573486
1717011079070968000,44.561968017578124,-0.3695734739303589,-0.20341812074184418,0.607200026512146
1717011079110979800,44.601979736328126,-0.05925392732024193,-0.3799581825733185,0.31642818450927734
1717011079150955300,44.64195532226562,0.3323107063770294,-0.3139847218990326,-0.37629300355911255
1717011079190963000,44.681962890625,0.4202753007411957,-0.02382374368607998,-2.0671679973602295
1717011079230974500,44.721974365234374,0.8552113175392151,1.443474531173706,-3.5723400115966797
1717011079270983400,44.7619833984375,1.2308934926986694,0.32009339332580566,-2.4025330543518066
1717011079310956300,44.801956298828124,1.0897835493087769,-1.0396926403045654,0.028099801391363144
1717011079350967800,44.8419677734375,0.29077184200286865,-0.7941248416900635,0.5436700582504272
1717011079390976500,44.8819765625,0.2223549485206604,-0.8686503767967224,0.12767083942890167
1717011079430982000,44.92198193359375,0.342695415019989,-0.7910705208778381,-0.3280346393585205
1717011079470963000,44.961962890625,0.35185837745666504,0.054367005825042725,-1.281595230102539
1717011079510973700,45.0019736328125,0.475253164768219,0.6609562039375305,-1.7544050216674805
1717011079550979000,45.04197900390625,0.7684684991836548,0.34086281061172485,-1.5968017578125
1717011079590960000,45.081960205078126,1.1563678979873657,0.36529740691185,-1.5790866613388062
1717011079630966500,45.12196655273438,1.3365731239318848,0.6603453159332275,-1.588249683380127
1717011079670972200,45.16197216796875,1.4520267248153687,0.7006624341011047,-1.431868076324463
1717011079710983700,45.20198364257813,1.4850133657455444,0.47219884395599365,-0.8698720932006836
1717011079750961700,45.24196166992188,1.274264931678772,0.1966986060142517,-0.34086281061172485
1717011079790967000,45.281967041015626,0.9169087409973145,0.20341812074184418,-0.1014036312699318
1717011079830978600,45.321978515625,0.39217549562454224,0.4593706727027893,-0.18936823308467865
1717011079870956500,45.36195654296875,-0.17898350954055786,0.6389650702476501,-0.23945917189121246
1717011079910962200,45.401962158203126,-0.4386012554168701,0.46303585171699524,-0.0806342139840126
1717011079950973700,45.4419736328125,-0.7110471725463867,0.2565633952617645,0.26572638750076294
1717011079990982700,45.481982666015625,-1.1227703094482422,0.015882495790719986,0.5858197808265686
1717011080030957800,45.52195776367188,-1.2492194175720215,-0.6010913848876953,0.8203920125961304
1717011080070969300,45.56196923828125,-1.3365731239318848,-0.5583308339118958,0.6670648455619812
1717011080110977800,45.601977783203125,-1.6823228597640991,0.08124507963657379,0.2638937830924988
1717011080150952400,45.641952392578126,-1.9138407707214355,0.15821409225463867,0.35185837745666504
1717011080190966000,45.68196606445313,-1.8490891456604004,-0.252287358045578,0.6542366743087769
1717011080230974700,45.721974609375,-1.6096298694610596,-0.40744712948799133,0.7232644557952881
1717011080270980400,45.76198046875,-1.3213015794754028,-0.3292563557624817,0.5705481171607971
1717011080310961700,45.80196166992187,-1.0256427526474,-0.2590068578720093,0.34025195240974426
1717011080350970000,45.84197021484375,-0.6157521605491638,-0.24617868661880493,0.09712757170200348
1717011080390975500,45.8819755859375,-0.04092797264456749,-0.22357667982578278,-0.09712757170200348
1717011080430987300,45.9219873046875,0.4251621961593628,-0.09529497474431992,-0.18570303916931152
1717011080470965000,45.961965087890626,0.9767735004425049,-0.14477506279945374,-0.403781920671463
1717011080510970600,46.001970703125,1.380555510520935,0.21135938167572021,-0.7183775305747986
1717011080550980000,46.04197998046875,1.490511178970337,0.6108652353286743,-0.9999864101409912
1717011080590958000,46.0819580078125,1.4080443382263184,0.375071257352829,-0.8002334833145142
1717011080630963700,46.121963623046874,1.5125023126602173,-0.012828170321881771,-0.49785518646240234
1717011080670975200,46.161975341796875,1.6401731967926025,0.17287486791610718,-0.46670106053352356
1717011080710984000,46.20198388671875,1.5137240886688232,0.6701191663742065,-0.7379252314567566
1717011080750958800,46.241958740234374,1.454470157623291,0.5277875661849976,-0.6725626587867737
1717011080790970400,46.281970458984375,1.4575244188308716,0.3182607889175415,-0.4966334402561188
1717011080830978800,46.32197875976563,1.3952162265777588,0.1563815027475357,-0.3433062732219696
1717011080870954000,46.3619541015625,1.1630873680114746,0.06536258012056351,-0.11545353382825851
1717011080910965200,46.40196533203125,0.7299839854240417,0.048258353024721146,0.05009094998240471
1717011080950973700,46.4419736328125,0.2632829248905182,0.1313360333442688,0.13744467496871948
1717011080990979600,46.4819794921875,-0.12889257073402405,0.048258353024721146,0.16982053220272064
1717011081030960600,46.521960693359375,-0.4795292317867279,0.17531833052635193,-0.02015855349600315
1717011081070969000,46.56196899414063,-0.740368664264679,0.46853363513946533,-0.18448130786418915
1717011081110975000,46.60197509765625,-1.0115928649902344,0.3995058834552765,0.045204028487205505
1717011081150955500,46.64195556640625,-1.2082914113998413,0.1362229436635971,0.3744603991508484
1717011081190963700,46.681963623046876,-1.474017858505249,0.001832595793530345,0.6743952035903931
1717011081230971600,46.7219716796875,-1.5876387357711792,-0.5149593949317932,1.006095051765442
1717011081270981400,46.7619814453125,-1.3781119585037231,-0.8784242272377014,1.2321151494979858
1717011081310959400,46.80195947265625,-1.3585642576217651,-0.6279694437980652,0.7910705208778381
1717011081350965000,46.84196508789063,-1.613295078277588,-0.1563815027475357,0.2480112910270691
1717011081390976500,46.8819765625,-1.8881844282150269,0.18448130786418915,-0.09285151958465576
1717011081430987300,46.9219873046875,-1.843591332435608,0.1459967941045761,0.02932153269648552
1717011081470962000,46.9619619140625,-1.5735888481140137,-0.18448130786418915,0.3280346393585205
1717011081510973700,47.0019736328125,-1.1832460165023804,-0.3090978264808655,0.31031954288482666
1717011081550982400,47.041982421875,-0.7012733221054077,-0.15515977144241333,0.05314527451992035
1717011081590957300,47.08195727539062,-0.2076941877603531,-0.06658431142568588,-0.12400564551353455
1717011081630968600,47.12196850585938,0.3597996234893799,-0.07635815441608429,-0.21074850857257843
1717011081670977300,47.161977294921876,0.8020660877227783,-0.07330382615327835,-0.4001167416572571
1717011081710983000,47.20198291015625,1.2712105512619019,-0.09162978827953339,-0.5070181488990784
1717011081750964000,47.2419638671875,1.7904460430145264,0.03176499158143997,-0.5754350423812866
1717011081790970400,47.281970458984375,2.0922133922576904,0.4043927788734436,-1.006095051765442
1717011081830975700,47.321975830078124,2.072054862976074,0.7049384713172913,-1.1001683473587036
1717011081870957000,47.36195703125,1.7006487846374512,0.38117989897727966,-1.1557570695877075
1717011081910965500,47.401965576171875,1.72935950756073,0.5002986192703247,-1.3225232362747192
1717011081950971100,47.44197119140625,1.7201964855194092,0.8484918475151062,-1.3836097717285156
1717011081990982700,47.481982666015625,1.4495831727981567,1.0207557678222656,-1.2522737979888916
1717011082030960600,47.521960693359375,1.0922271013259888,0.8234463334083557,-1.0311405658721924
1717011082070996500,47.56199658203125,0.8356636762619019,0.7104362845420837,-1.054964303970337
1717011082110977500,47.6019775390625,0.6676757335662842,0.8484918475151062,-1.2479976415634155
1717011082150955300,47.64195532226562,0.4050036668777466,1.0433578491210938,-1.3585642576217651
1717011082190961000,47.6819609375,0.1319468915462494,1.0946705341339111,-1.1582005023956299
1717011082230972200,47.72197216796875,-0.06841690838336945,0.9089674949645996,-0.7464773058891296
1717011082270981000,47.76198120117188,-0.2877175211906433,0.645684540271759,-0.32681289315223694
1717011082310956300,47.801956298828124,-0.655458390712738,0.6279694437980652,-0.24434609711170197
1717011082350967800,47.8419677734375,-0.99876469373703,0.826500654220581,-0.6212499737739563
1717011082390976500,47.8819765625,-1.3585642576217651,1.0641272068023682,-0.7281513810157776
1717011082430982000,47.92198193359375,-1.7006487846374512,0.8961393237113953,-0.5766568183898926
1717011082470963000,47.961962890625,-1.9113973379135132,0.7342600226402283,0.02076941914856434
1717011082510974000,48.00197387695312,-2.0323486328125,0.21135938167572021,0.6585127115249634
1717011082550979300,48.04197924804687,-1.9248363971710205,-0.6053674817085266,0.8289441466331482
1717011082590960400,48.08196044921875,-1.757459282875061,-0.37751471996307373,0.2993239760398865
1717011082630969000,48.12196899414062,-1.4868459701538086,0.16554448008537292,-0.10445795953273773
1717011082670974200,48.16197412109375,-1.1924089193344116,-0.0757472887635231,-0.23518311977386475
1717011082710986000,48.20198608398437,-0.9853256344795227,-0.242513507604599,-0.23518311977386475
1717011082750964000,48.2419638671875,-0.8002334833145142,-0.2474004179239273,-0.2840523421764374
1717011082790982700,48.28198266601562,-0.5503895878791809,-0.22907446324825287,-0.5839871764183044
1717011082831448300,48.3224482421875,-0.5503895878791809,-0.22907446324825287,-0.5839871764183044
1717011082871457000,48.36245703125,0.31581732630729675,0.04459316283464432,-1.4911220073699951
1717011082911435000,48.40243505859375,0.750142514705658,0.4355469346046448,-2.116037130355835
1717011082951443500,48.442443359375,1.073290228843689,0.7275404930114746,-2.4947736263275146
1717011082991452000,48.48245190429687,1.1527026891708374,0.3781255781650543,-2.740952253341675
1717011083031430100,48.52243017578125,1.55892813205719,0.47769662737846375,-3.357926368713379
1717011083071438800,48.56243896484375,1.341460108757019,1.3445143699645996,-3.221703290939331
1717011083111447000,48.60244702148437,1.1917980909347534,1.2528846263885498,-2.6059510707855225
1717011083151455700,48.64245581054688,1.3084733486175537,0.5155702829360962,-2.3634376525878906
1717011083191433700,48.68243383789063,1.2162326574325562,0.3585779070854187,-2.437352418899536
1717011083231442200,48.72244213867187,1.2528846263885498,1.197295904159546,-2.7348437309265137
1717011083271451000,48.76245092773438,1.1105530261993408,1.6267341375350952,-2.788599729537964
1717011083311459600,48.80245947265625,0.8784242272377014,1.5302174091339111,-2.704911231994629
1717011083351437600,48.8424375,0.8161159753799438,1.3915510177612305,-2.668259382247925
1717011083391446000,48.88244604492188,0.6194173693656921,1.36650550365448,-2.5466971397399902
1717011083431454500,48.92245434570312,0.32620203495025635,1.5717562437057495,-2.342057466506958
1717011083471432700,48.9624326171875,0.17959438264369965,1.4605787992477417,-1.9999728202819824
1717011083511441000,49.00244091796875,0.04092797264456749,1.3518447875976562,-1.528384804725647
1717011083551449600,49.04244970703125,-0.060475658625364304,1.350012183189392,-1.23394775390625
1717011083591458000,49.0824580078125,-0.10934487730264664,1.2431107759475708,-0.7757988572120667
1717011083631436300,49.12243627929688,-0.24678955972194672,1.1997393369674683,-0.23273965716362
1717011083671444700,49.16244482421875,-0.6053674817085266,0.5002986192703247,0.31520646810531616
1717011083711453200,49.202453125,-0.9138544201850891,0.5369505286216736,0.45326200127601624
1717011083751431400,49.24243139648438,-1.3616186380386353,0.5167919993400574,0.4899139404296875
1717011083791440000,49.28243994140625,-1.5277739763259888,-0.1716531366109848,0.503963828086853
1717011083831448600,49.32244848632813,-1.7623462677001953,-0.03298672288656235,0.32620203495025635
1717011083871457000,49.36245703125,-1.9126191139221191,0.5766568183898926,-0.1814269721508026
1717011083911526100,49.402526123046876,-1.901012659072876,0.7049384713172913,-0.4001167416572571
1717011083952082000,49.44308203125,-1.901012659072876,0.7049384713172913,-0.4001167416572571
1717011083992093400,49.48309350585937,-1.2192870378494263,0.04092797264456749,-0.2938261926174164
1717011084032102100,49.52310205078125,-0.8289441466331482,0.03420845419168472,-0.18997909128665924
1717011084072077000,49.5630771484375,-0.41111230850219727,-0.016493361443281174,-0.12217304855585098
1717011084112088600,49.60308862304687,0.1368338167667389,-0.2480112910270691,-0.1612684279680252
1717011084152096800,49.6430966796875,0.6304129362106323,-0.24068090319633484,-0.5436700582504272
1717011084192102400,49.68310229492187,1.047023057937622,-0.027488935738801956,-0.8234463334083557
1717011084232083500,49.72308349609375,1.3054190874099731,-0.07452555745840073,-0.8680394887924194
1717011084272092400,49.76309252929688,1.3909401893615723,-0.35246923565864563,-0.9651671051979065
